t,frame,xb,xa,xc,xp,pwm1,pwm2,pwm3,pwm4,p,q,r,accx,accy,accz,x,y,z,roll,pitch,yaw,vx,vy,vz,theta1,theta2,b1s1,a1s1,pwr1,pwr2,pwrsum
105.277499999912,38120,0.0230558594939359,-1.98917799249327E-07,6.48053276646056,5.5668,1412,1565,1473,1521,-0.0237528174341408,0.00421934330352191,0.000894478873126593,-0.00270603054800091,-0.705505947399542,-9.77756919032563,0.564850704402849,-0.62103369470434,-20.8642081838033,0.0761463937718625,0.00879552319456267,-0.117279464289554,0.0427525548757008,0.0761700799162777,-0.00398912210559769,0.113085302887505,0.0971406706377757,-0.000402324948196986,5.01968096120464E-09,0.746268180053301,0.0682655734645183,0.81453375351782
105.327499999912,38140,0.0230558594939359,-1.98917799249327E-07,6.48053276646056,5.5668,1412,1565,1473,1521,-0.0229086652125095,-0.005526025539546,0.00109948924043198,-0.000216607481523551,-0.711135176958133,-9.77939311951311,0.566881013402357,-0.617170844572063,-20.8644060973988,0.0749705153141389,0.00875905611329738,-0.117232259677673,0.0384589301104208,0.0782250066451614,-0.00394254036880598,0.113085302887505,0.0971406706377757,-0.000402324948196986,5.01968096120464E-09,0.746264221600718,0.0682677313592853,0.814531952960004
105.374999999912,38160,0.0230558594939359,-1.98917799249327E-07,6.48053276646056,5.5668,1412,1565,1473,1521,-0.00768938547979229,-0.0132835998058537,0.00135774743949221,-0.00582780922874773,-0.710582206337803,-9.78131130643781,0.568699549403332,-0.613218876472509,-20.8646033540728,0.0741699899949204,0.00821380191751551,-0.117211511944111,0.0343006187209141,0.0797878967312072,-0.00395238350295865,0.113085302887505,0.0971406706377757,-0.000402324948196986,5.01968096120464E-09,0.746331393672577,0.0682701309253768,0.814601524597953
105.427499999912,38180,0.0346062586541933,-0.0200035616527051,6.50032909639805,5.5668,1412,1564,1473,1521,-0.000690265953621479,-0.00851531354839035,0.00154605898953206,-0.00160583726113164,-0.706687175904054,-9.83351956203441,0.570316131581756,-0.609198165139972,-20.8648021894605,0.0739894318471606,0.00765462924991495,-0.117178680924725,0.0304271242410946,0.081045872957991,-0.00423641385742146,0.113430748844914,0.0971406706377757,-0.000603879413543464,0.000349063699405057,0.748752846553188,0.0682713540833094,0.817024200636498
105.474999999912,38200,0.0346062586541933,-0.0200035616527051,6.50032909639805,5.5668,1412,1564,1473,1521,0.00614692910063748,0.00464769387022621,0.00112561392149018,-0.000437640612847776,-0.715890590021275,-9.82178041447275,0.571741781249011,-0.605111880067893,-20.865074716156,0.074215369485463,0.00752995735348987,-0.1171209513095,0.0266131235392206,0.0823827823560012,-0.00655029313464938,0.113430748844914,0.0971406706377757,-0.000603879413543464,0.000349063699405057,0.748655847536402,0.0682737989030787,0.816929646439481
105.527499999912,38220,0.0346062586541933,-0.0200035616527051,6.50032909639805,5.5668,1412,1564,1473,1521,-0.00523476988357377,0.0136707468973729,0.000704578777895408,-0.00852438829390953,-0.712105450110476,-9.81521339940189,0.572978308937567,-0.600957122408572,-20.8654494243407,0.0742545927760852,0.00802168268614027,-0.117038575025684,0.0227795651606352,0.0838290268199374,-0.0083936721556291,0.113430748844914,0.0971406706377757,-0.000603879413543464,0.000349063699405057,0.748599881834993,0.0682757802124518,0.816875662047445
105.574999999912,38240,0.0230558594940886,-1.98925375330578E-07,6.48053276647183,5.5668,1412,1565,1473,1521,-0.0167287244238498,0.00730122088060877,0.000896410512624821,-0.00187491169236774,-0.706393194805591,-9.77095207133579,0.574015309007977,-0.596734612851395,-20.8658662478277,0.0736788007808189,0.00860931410361255,-0.116957196647666,0.0186812074449285,0.0850431291546516,-0.00801769607671484,0.113085302887701,0.0971406706377757,-0.000402324948199652,5.01981314973143E-09,0.746245431204919,0.068276190567717,0.814521621772636
105.624999999912,38260,0.0230558594940886,-1.98925375330578E-07,6.48053276647183,5.5668,1412,1565,1473,1521,-0.0222970620050114,-0.001354694669036,0.0011918819928533,-0.000159854889355923,-0.711215756499961,-9.77451468646307,0.574840910562008,-0.592458421642814,-20.8662577828618,0.0726881654321841,0.0087729513631143,-0.116892767543556,0.0143246247430306,0.0859083099811794,-0.00768511933901903,0.113085302887701,0.0971406706377757,-0.000402324948199652,5.01981314973143E-09,0.746263130408524,0.068275769469099,0.814538899877623
105.674999999912,38280,0.0230558594940886,-1.98925375330578E-07,6.48053276647183,5.5668,1412,1565,1473,1521,-0.0115623535295552,-0.010471639348103,0.00151524275215958,-0.00512522327179921,-0.710336597784474,-9.77733848485936,0.57544888089237,-0.588150947347849,-20.8666370272171,0.0718003536345771,0.0084151740492979,-0.116850824415446,0.00999823323319921,0.0863212035032037,-0.0074983224081168,0.113085302887701,0.0971406706377757,-0.000402324948199652,5.01981314973143E-09,0.746320619171259,0.0682756615515763,0.814596280722835
105.727499999912,38300,0.0230558594940886,-1.98925375330578E-07,6.48053276647183,5.5668,1412,1565,1473,1521,-0.00496389754364862,-0.0109505413411201,0.00181707283901572,-0.00145203140758389,-0.706894634630424,-9.77847299080408,0.575844511858414,-0.583833573427931,-20.8670084009038,0.0713809618336522,0.00787079059837003,-0.116806284624327,0.00588331400825916,0.0863461829711551,-0.00736070131313181,0.113085302887701,0.0971406706377757,-0.000402324948199652,5.01981314973143E-09,0.746312618063343,0.0682742469510583,0.814586865014401
105.774999999912,38320,0.0346062586541806,-0.0200035616526924,6.50032909639806,5.5668,1412,1564,1473,1521,0.00407489480758005,-0.000531691930442717,0.00159446439439626,-0.000459994120083712,-0.715824728380664,-9.82089409020126,0.576038997065587,-0.579516942221086,-20.8674088547518,0.071401952598863,0.0075388013006245,-0.116741072237508,0.00190261041442581,0.0863152801181998,-0.00907857467251573,0.113430748844914,0.0971406706377757,-0.000603879413543247,0.000349063699404825,0.748656915227757,0.0682739454827925,0.816930860710549
105.827499999912,38340,0.0346062586541806,-0.0200035616526924,6.50032909639806,5.5668,1412,1564,1473,1521,-0.00214648284004957,0.00820988333433478,0.00117538942477967,-0.00777555532588535,-0.711679922556619,-9.81476983102313,0.57603750149039,-0.575200452773803,-20.8679096313707,0.0714671213243589,0.00774616273986494,-0.11665681433661,-0.00200390114177843,0.0863663677994548,-0.0108970034001392,0.113430748844914,0.0971406706377757,-0.000603879413543247,0.000349063699404825,0.748594151026655,0.0682735037067495,0.816867654733404
105.874999999912,38360,0.0115022600536232,-0.0200087020779926,6.46072941274927,5.5668,1413,1565,1473,1521,-0.013254451745733,0.00869501360951427,0.00164654703700254,0.00247742139856033,-0.709120054148056,-9.72011702626774,0.575836075641594,-0.570886323284241,-20.8684391884375,0.0711053204895912,0.0081936741736673,-0.116561185053121,-0.00604780499276526,0.0860989135080456,-0.00929384917341155,0.112739734365243,0.0971406706377757,-0.000200714637963546,0.000349153399826319,0.743774185283419,0.0682702926924517,0.81204447797587
105.924999999912,38380,0.0230558605892999,2.054602702013E-07,6.4805327675798,5.5668,1412,1565,1473,1521,-0.0242703147231807,0.000871654538224548,0.00222520252102735,6.38885029025094E-06,-0.71030647946688,-9.78690717097481,0.575427950469295,-0.566593413147396,-20.8688521369039,0.0701368502025735,0.00848041953106725,-0.116439225176698,-0.0103235436414295,0.0855942843725463,-0.00797644584218943,0.113085302907035,0.0971406706377757,-0.000402324967311085,-2.03671637049041E-09,0.746336023613098,0.0682670337937062,0.814603057406804
105.977499999912,38400,0.0230558605892999,2.054602702013E-07,6.4805327675798,5.5668,1412,1565,1473,1521,-0.0139749683418209,-0.0108834893571367,0.00243543092812127,-0.00429568627075196,-0.709488656779241,-9.7792559018181,0.574803596821982,-0.562332466449347,-20.8692536330398,0.069134254446503,0.0081589422197987,-0.116344854856201,-0.0146477870683975,0.0847597972562463,-0.00803335399985886,0.113085302907035,0.0971406706377757,-0.000402324967311085,-2.03671637049041E-09,0.746293443607466,0.0682647679532464,0.814558211560712
106.024999999912,38420,0.0230558605892999,2.054602702013E-07,6.4805327675798,5.5668,1412,1565,1473,1521,-0.00632178779424094,-0.0139133427672517,0.00261553190948169,-0.00100330343326491,-0.706629891517614,-9.77856310226286,0.573967002401768,-0.558125704526093,-20.869653697056,0.0686069106016117,0.00752306042397489,-0.116262040121525,-0.0187544499728365,0.0834708752895168,-0.00795957491776823,0.113085302907035,0.0971406706377757,-0.000402324967311085,-2.03671637049041E-09,0.746266939488272,0.0682611734129385,0.814528112901211
106.074999999912,38440,0.0230558605892999,2.054602702013E-07,6.4805327675798,5.5668,1412,1565,1473,1521,0.00416532570831867,-0.00745318053496828,0.00171930596886165,-0.000161637421093014,-0.714284556802165,-9.77897069300276,0.572932613537664,-0.553984828946695,-20.8700491548294,0.0686095470834913,0.00694434492568082,-0.116180535447865,-0.0225607424862908,0.082236961143796,-0.00784954818798713,0.113085302907035,0.0971406706377757,-0.000402324967311085,-2.03671637049041E-09,0.746877033141742,0.068392414395668,0.81526944753741
106.127499999912,38460,0.0115018982009248,-0.0200089036431202,6.46072941393841,5.4889,1413,1565,1473,1522,0.000294928801029075,0.0022960866677315,0.00124461353342918,-0.0031047206904268,-0.693626944870656,-9.73674097508035,0.571714616142757,-0.549910489622155,-20.8703969524104,0.0687966281484025,0.00678013558898185,-0.116096363601631,-0.0261082903105868,0.0808792122031162,-0.00564201565918031,0.112739734385993,0.0957813156377756,-0.00020070832363395,0.000349156917137805,0.741772067164266,0.067093550549175,0.808865617713441
106.177499999912,38480,0.0115018982009248,-0.0200089036431202,6.46072941393841,5.4889,1413,1565,1473,1522,-0.010029948035595,0.00607791672027049,0.00104505417999844,0.00260839829346486,-0.690158266142438,-9.74329163243507,0.570319739125512,-0.545902838870997,-20.8706295521888,0.068562511462882,0.00703439952112315,-0.11601776432404,-0.0296866919071357,0.0794372990371018,-0.00368509970090438,0.112739734385993,0.0957813156377756,-0.00020070832363395,0.000349156917137805,0.741221836295398,0.0669661877677273,0.808188024063125
106.227499999912,38500,0.0230558605895289,2.05468126171363E-07,6.48053276759103,5.5668,1412,1565,1473,1521,-0.0175770762799442,-0.000908333068586135,0.000266151092788826,-0.000143938075026134,-0.709645708296564,-9.78810098000842,0.568742505967421,-0.541961467418713,-20.8707986614538,0.0678335335756061,0.00718844966154125,-0.115991526136896,-0.0334561648243369,0.0780361634332153,-0.0036068833253551,0.113085302907231,0.0971406706377757,-0.000402324967315114,-2.03685345661064E-09,0.746257111035895,0.0682520237685992,0.814509134804494
106.274999999911,38520,0.0230558605895289,2.05468126171363E-07,6.48053276759103,5.5668,1412,1565,1473,1521,-0.0101683188033673,-0.00889145010232305,0.000308742779472586,-0.00354463185786025,-0.708621444553713,-9.78414617163326,0.566974766982132,-0.538106033212566,-20.8709867862534,0.0671030405264777,0.00689629287541285,-0.11599679773943,-0.037247761324371,0.0761218372534169,-0.0038797162097529,0.113085302907231,0.0971406706377757,-0.000402324967315114,-2.03685345661064E-09,0.746223530046519,0.0682478996030679,0.814471429649586
106.324999999911,38540,0.0230558605895289,2.05468126171363E-07,6.48053276759103,5.5668,1412,1565,1473,1521,-0.00535077409698782,-0.0109896037678146,0.000306817395358469,-0.000864279214893751,-0.706216430765057,-9.78233184116685,0.565020866247342,-0.534355456745971,-20.8711844221108,0.066698281504576,0.00639962560321866,-0.116014498846886,-0.0408596977718658,0.0738715492105854,-0.00401179907164586,0.113085302907231,0.0971406706377757,-0.000402324967315114,-2.03685345661064E-09,0.746181003367884,0.0682428323578178,0.814423835725702
106.374999999911,38560,0.011502260060067,-0.0200087020738833,6.46072941276035,5.5668,1413,1565,1473,1521,0.00207519895535358,-0.00559549341554148,-0.000447606451863146,-0.000616139262293681,-0.713429222422922,-9.73164774576934,0.562892742156368,-0.530713980087646,-20.8713862030867,0.0666564827396634,0.00594484888529955,-0.116066064365642,-0.044246923051318,0.0716203359566128,-0.00383341797894401,0.112739734365436,0.0971406706377757,-0.000200714638075974,0.000349153399754606,0.743704974579148,0.0682393208484348,0.811944295427582
106.424999999911,38580,0.011502260060067,-0.0200087020738833,6.46072941276035,5.5668,1413,1565,1473,1521,-0.00471147960312169,0.00117685050808091,0.000126899390275548,-0.00257049606179638,-0.707632935278415,-9.74331769270371,0.560601044724343,-0.527199265469199,-20.8715201851869,0.0665899155245972,0.00586364943883044,-0.11607909078077,-0.0474211355954796,0.0689939873218078,-0.00163901523778225,0.112739734365436,0.0971406706377757,-0.000200714638075974,0.000349153399754606,0.74377541045022,0.0682323073119852,0.812007717762206
106.474999999911,38600,0.011502260060067,-0.0200087020738833,6.46072941276035,5.5668,1413,1565,1473,1521,-0.0119393179177643,0.000831403547211563,-0.000369794284255277,0.00260321672726441,-0.708047356695534,-9.74779133093979,0.558149929016327,-0.523808662577826,-20.8715571465422,0.0661615631350699,0.00595259722535893,-0.116098306857326,-0.0506329584087585,0.0664552603863211,0.000110615485061807,0.112739734365436,0.0971406706377757,-0.000200714638075974,0.000349153399754606,0.743801620504086,0.0682275900739888,0.812029210578075
106.524999999911,38620,0.023055860589319,2.054602702013E-07,6.4805327675798,5.5668,1412,1565,1473,1521,-0.0129195226116927,-0.00476297577089658,-0.000607732224390576,-0.0001562233753028,-0.708096402466338,-9.79099353818898,0.555535042665566,-0.520551233211983,-20.8715731033312,0.0655423699238003,0.00585610835250091,-0.116128894178516,-0.0539585291870599,0.0637752968622539,-0.000661940191837929,0.113085302907035,0.0971406706377757,-0.000402324967311426,-2.03671637049041E-09,0.746121550570056,0.0682221839862727,0.814343734556329
106.577499999911,38640,0.023055860589319,2.054602702013E-07,6.4805327675798,5.5668,1412,1565,1473,1521,-0.00489915457497224,-0.00976044727680814,-0.000863093965805789,-0.0027631695796724,-0.707240992525648,-9.78699465174964,0.552756429362548,-0.517435934904347,-20.8716165320113,0.0650691917099573,0.00545159093930256,-0.11619206902057,-0.0571660867043576,0.0607974158251537,-0.00104205520700204,0.113085302907035,0.0971406706377757,-0.000402324967311426,-2.03671637049041E-09,0.746081932882499,0.068216715129341,0.81429864801184
106.627499999911,38660,0.011502260060067,-0.0200087020738833,6.46072941276035,5.5668,1413,1565,1473,1521,-0.00355748152464942,-0.00593445153896636,-0.000913560690113285,0.00283999390490622,-0.707659187134322,-9.7377358233758,0.549822361316295,-0.514477071399497,-20.8716622016107,0.0648749655613846,0.00504042806622577,-0.11626612795849,-0.0601509472552116,0.0574830867927261,-0.000354385959628056,0.112739734365436,0.0971406706377757,-0.000200714638075974,0.000349153399754606,0.743620231421284,0.0682093753204454,0.81182960674173
106.677499999911,38680,0.011502260060067,-0.0200087020738833,6.46072941276035,5.5668,1413,1565,1473,1521,-0.00572355279036221,-0.0019700218481847,-0.00063584869022536,-0.000471991219326555,-0.710903262357098,-9.74876034433913,0.546743718847988,-0.511689451277754,-20.8716299212786,0.0646733010260149,0.0048499573324131,-0.116316756775015,-0.0629941048682751,0.0540027314053337,0.00152769585839407,0.112739734365436,0.0971406706377757,-0.000200714638075974,0.000349153399754606,0.743671679264315,0.0682015735892207,0.811873252853535
106.724999999911,38700,-4.98573740625083E-05,2.08447758852489E-07,6.50033843217382,5.5668,1412,1565,1472,1521,-0.0100104473536078,-0.00390654057966442,-0.00114876805122347,0.00165790696975091,-0.704427397301393,-9.84983777664899,0.543525626491561,-0.509076094323198,-20.8715476255953,0.0642666263691568,0.00472177602481759,-0.116361040452521,-0.0657105211497144,0.0506037975397889,0.000533158499006116,0.113430911754201,0.0971406706377757,8.69811149578803E-07,-2.08884802894715E-09,0.748477384389536,0.0681956968510195,0.816673081240556
106.777499999911,38720,0.0230555023583309,-3.6003878994167E-12,6.48053276810701,5.5668,1412,1565,1473,1521,-0.0106472196384872,-0.0120340980032897,-0.00213680616946762,-0.00122201823791116,-0.704248577631125,-9.774574957118,0.54017377821347,-0.506632160873287,-20.8715846868667,0.0636728878025466,0.004349987336832,-0.116471298625818,-0.0683518695120813,0.0470575667260122,-0.00128386295814851,0.113085302916235,0.0971406706377757,-0.000402318716180685,1.54862817507428E-09,0.745848965443127,0.0681897886796419,0.814038754122768
106.824999999911,38740,0.0115022600597617,-0.0200087020815484,6.46072941274906,5.5668,1413,1565,1473,1521,-0.00309012577818657,-0.00783335835230301,-0.0022438121667685,-0.000508391867178326,-0.710035037962069,-9.74101893505067,0.536692317868374,-0.504379033399348,-20.8716212456362,0.063408656658823,0.00382997274714512,-0.11661750585001,-0.0708613607924196,0.042992204624081,0.000294989976271985,0.112739734365239,0.0971406706377757,-0.000200714638070642,0.00034915339988836,0.743487700248144,0.0681815834593802,0.811669283707525
106.877499999911,38760,0.0115022600597617,-0.0200087020815484,6.46072941274906,5.5668,1413,1565,1473,1521,-0.0030827405831028,-0.00462554989180769,-0.00223777407620351,-0.00166174134390737,-0.705230454938943,-9.75003364060312,0.533092185424566,-0.50233462237654,-20.8715613026828,0.0632490780287113,0.00352197746906998,-0.11674888597599,-0.0731228038681057,0.0387932154781854,0.00203409624247073,0.112739734365239,0.0971406706377757,-0.000200714638070642,0.00034915339988836,0.743533910769564,0.0681731779512953,0.81170708872086
106.924999999911,38780,-0.011602359008002,0.0200105999517064,6.48053336928362,5.5668,1412,1566,1472,1521,-0.00833662590994114,-0.00681631940224288,-0.00327183535744816,0.00171722320549935,-0.705692779371502,-9.78915215594524,0.529381950268231,-0.50049675003816,-20.8714926934877,0.0629481935465105,0.0033461343174953,-0.116893699988132,-0.0752586412505498,0.0347728869513821,0.000222933002764122,0.113085313406767,0.0971406706377757,0.000202460964661827,-0.000349183420591929,0.745828815316802,0.0681668335653182,0.81399564888212
106.977499999911,38800,0.0115019036330196,0.0200089036460844,6.46072941280625,5.5668,1412,1566,1473,1521,-0.00793865152318674,-0.0134770709090897,-0.00383913828463996,0.000274240278190157,-0.70055421432851,-9.73517509901239,0.525570610874263,-0.498862583133599,-20.8714797555273,0.0624685579728637,0.00283167149254394,-0.117107953954872,-0.0771941284444305,0.0305210724245488,0.000846960859883298,0.112739734366237,0.0971406706377757,-0.000200708418423988,-0.000349153820058838,0.743317360840145,0.0681589529552924,0.811476313795437
107.027499999911,38820,0.0115019036330196,0.0200089036460844,6.46072941280625,5.5668,1412,1566,1473,1521,0.00565453780002408,-0.0176501265400593,-0.00400740017929975,0.00188193465206539,-0.703046582167287,-9.74962801522604,0.521666035011718,-0.497448383895137,-20.8713888027402,0.0623927013764637,0.00200246952222911,-0.117355880820314,-0.078916016334471,0.0260321549209813,0.00267053026922613,0.112739734366237,0.0971406706377757,-0.000200708418423988,-0.000349153820058838,0.743436793333642,0.0681511034790764,0.811587896812718
107.077499999911,38840,0.0230558605895925,-2.05468049838051E-07,6.48053276759096,5.5668,1412,1565,1473,1521,0.0108847585627569,-0.00569755829863347,-0.00493867040132434,-0.000983718469754013,-0.702991834183536,-9.79508792414256,0.517684931834731,-0.496256191755679,-20.8712743724243,0.0628614137969746,0.00143912829230914,-0.117614001755665,-0.080282800713395,0.0216959163467439,0.00185838037028846,0.11308530290723,0.0971406706377757,-0.000402324967316199,5.13398282580013E-09,0.745728114844936,0.0681443937740749,0.813872508619011
107.124999999911,38860,-0.0116023590017427,-0.0200105999553004,6.48053336928364,5.5668,1413,1565,1472,1521,0.00304031160643356,0.00153863921656278,-0.00643267186852561,-0.000405031424057649,-0.707497628716222,-9.78357277563041,0.513643323142294,-0.495271827361339,-20.8712426833869,0.0632538654153363,0.00135054157565564,-0.117905829821652,-0.08136984419218,0.0176729091733497,-0.000224355409334458,0.113085313406767,0.0971406706377757,0.000202460964552592,0.000349186517785324,0.745592132832914,0.0681387898387347,0.813730922671649
107.177499999911,38880,-0.0116023587365035,0.0200110141356231,6.48053336882482,5.5668,1412,1566,1472,1521,-0.0115094748404091,-0.00234370408745805,-0.00544599500903048,0.00600570440476886,-0.700231901823156,-9.7971808552228,0.509548279629079,-0.494503259959015,-20.8712190867198,0.0629419799715294,0.00144451249920567,-0.118186665462702,-0.0824393130023746,0.0131866043469724,0.000614973551611093,0.113085313398761,0.0971406706377757,0.000202460959924165,-0.000349190648101288,0.745615848740206,0.068121933438342,0.813737782178548
107.227499999911,38900,-0.0116023587365035,0.0200110141356231,6.48053336882482,5.5668,1412,1566,1472,1521,-0.0129710483900747,-0.0180704589388646,-0.00385340274659642,0.0014294857872726,-0.701969422401788,-9.78917223336472,0.505398958683622,-0.493961852216585,-20.8712027968986,0.0622313051746514,0.000956495969974669,-0.118442217171414,-0.0835118577922101,0.00845307270414396,6.91237412063728E-05,0.113085313398761,0.0971406706377757,0.000202460959924165,-0.000349190648101288,0.745300381424298,0.0680538742754163,0.813354255699714
107.277499999911,38920,0.011501903633045,0.0200089036388709,6.46072941280628,5.5668,1412,1566,1473,1521,0.0010766199786908,-0.0205214082945326,-0.00254819486186818,0.000471928452465247,-0.697302599092065,-9.73752666499425,0.501203737581448,-0.49366628036315,-20.8712034394678,0.0619060596282658,-5.52692974074905E-05,-0.118656379272285,-0.0842406552068899,0.00340055430245612,0.000484208476023934,0.112739734366237,0.0971406706377757,-0.000200708418424453,-0.000349153819932942,0.743023878395276,0.0680899714325618,0.811113849827838
107.327499999911,38940,0.011501903633045,0.0200089036388709,6.46072941280628,5.5668,1412,1566,1473,1521,0.0159909547977348,-0.0180838154946729,-0.00148738835642932,0.00251584959376491,-0.700073538290818,-9.75111817141458,0.496981534210957,-0.493622838180329,-20.8711338933743,0.0623372234377915,-0.00107297594527183,-0.118817117827908,-0.084549542215745,-0.00161709351859854,0.00218042652196958,0.112739734366237,0.0971406706377757,-0.000200708418424453,-0.000349153819932942,0.743138659989478,0.0680787834340003,0.811217443423479
107.37749999991,38960,0.0230558605895925,-2.0546806256027E-07,6.48053276759096,5.5668,1412,1565,1473,1521,0.0185130974165276,-0.00010962132648654,-0.00106841454668597,-0.00136264966194295,-0.696305845516352,-9.7978579369638,0.492756702095116,-0.493818597804608,-20.871030924431,0.0632734600005937,-0.00153966680869295,-0.118919176298911,-0.0844278332820813,-0.0062248687702491,0.00156249926911538,0.11308530290723,0.0971406706377757,-0.000402324967316199,5.13398304278212E-09,0.744804004738845,0.0679434998234934,0.812747504562338
107.42749999991,38980,-0.0116023590017554,0.0200105999553004,6.48053336928364,5.6447,1412,1566,1472,1520,0.0018495125587332,0.00533936489467817,-0.000747517770332916,0.000527160703679089,-0.709734397058025,-9.78754355277563,0.488544019201281,-0.494231593827687,-20.8710260367836,0.0638338216897326,-0.00133269153069965,-0.11897748616998,-0.0840978445975836,-0.0104205521435538,-0.00103342765530793,0.113085313406767,0.0985000256377757,0.000202460964552809,-0.000349183420654637,0.747349437482466,0.0692414851504895,0.816590922632955
107.47499999991,39000,-0.0116023590017554,0.0200105999553004,6.48053336928364,5.6447,1412,1566,1472,1520,-0.0105946636652773,-0.000727224178797351,-0.000530753325750873,0.00626882056776936,-0.713186181811129,-9.78815331192959,0.484344946160096,-0.494854271632059,-20.8710815694178,0.0635733794484174,-0.00119058205120469,-0.119000834354468,-0.0838623526715886,-0.0145201114516339,-0.00123697645661601,0.113085313406767,0.0985000256377757,0.000202460964552809,-0.000349183420654637,0.747437289780905,0.0692588647937329,0.816696154574637
107.52499999991,39020,-0.0116023590017554,0.0200105999553004,6.48053336928364,5.6447,1412,1566,1472,1520,-0.0127190057727914,-0.0166372615878796,-0.000180567819551658,0.000841114821190828,-0.716343986645361,-9.78935132900614,0.480158020514681,-0.495686962302322,-20.8711533391507,0.0628915012614324,-0.00161025090737723,-0.119043145220512,-0.0836059638908864,-0.0188401365334453,-0.0016457975551824,0.113085313406767,0.0985000256377757,0.000202460964552809,-0.000349183420654637,0.747470780964872,0.0692495830048167,0.816720363969689
107.57999999991,39040,0.0115019036330323,0.0200089036460844,6.46072941280626,5.6447,1412,1566,1473,1520,-0.00161939577623366,-0.0205916607898625,-1.14570824178075E-05,-0.000855439508830255,-0.710142519319151,-9.740111061324,0.475783881331311,-0.496802701928784,-20.871247865377,0.0625324210278169,-0.00262737717948417,-0.11911557323541,-0.0829660892426455,-0.0237201100743621,-0.00148208161322562,0.112739734366237,0.0985000256377757,-0.000200708418424205,-0.000349153820058838,0.744992304846178,0.0692397526164439,0.814232057462622
107.62999999991,39060,0.0230504587244532,0.0400124671711757,6.48052403348879,5.6447,1411,1566,1473,1520,0.018694163762417,-0.0185647776830638,0.00018472516573484,0.00383644623237206,-0.712889548852875,-9.79080254402242,0.47165753035437,-0.498106647344138,-20.8713005113306,0.062985240944654,-0.00369062594541065,-0.119174249787852,-0.0819763288967514,-0.0283929185489334,-0.000772857727401892,0.113085150497147,0.0985000256377757,-0.000402230704769536,-0.000698216003571668,0.747581356667736,0.0692654429402485,0.816846799607984
107.67999999991,39080,0.0115022592261192,0.0200091037665087,6.46072941117403,5.5668,1412,1566,1473,1521,0.020179364279276,-0.00492981427187758,6.67023416931202E-06,-0.00131975814201935,-0.698574508558989,-9.75199087783982,0.467594974421427,-0.499636821000056,-20.8713209010639,0.0640111437325406,-0.00429104331385107,-0.119185602752107,-0.0804749963739998,-0.0326052392645625,0.000357755281764113,0.112739734337755,0.0971406706377757,-0.000200714623523581,-0.000349157312160225,0.742855545378728,0.0680270498112959,0.810882595190024
107.72999999991,39100,-0.0116023590013483,0.0200105999474317,6.48053336929502,5.6447,1412,1566,1472,1520,0.0109565151415383,0.00362153909913687,-0.000585515443155109,-0.000880973967470465,-0.717272806567063,-9.79949700293007,0.463615157925992,-0.501365431215255,-20.8713218201521,0.064854356682022,-0.00428807839528622,-0.119178671086119,-0.078677572111218,-0.0362875861233305,-0.000992090657372212,0.113085313406966,0.0985000256377757,0.000202460964545711,-0.00034918342051735,0.748730791010019,0.0694993769064159,0.818230167916434
107.77999999991,39120,-5.52600008747103E-05,0.0400162688438623,6.50032969758145,5.5668,1411,1566,1472,1521,-0.00247727568860755,0.000975418562817191,-0.00027490762155302,0.00667226691184339,-0.692836234567202,-9.8433884023375,0.459723853851603,-0.503276248416002,-20.8713982486002,0.06499693752208,-0.00411387464115912,-0.119158664723067,-0.0769570827747195,-0.0398868117973485,-0.0026801661360871,0.113430759335564,0.0971406706377757,9.64086987442991E-07,-0.000698282342760054,0.747468909803786,0.0680012882035873,0.815470198007373
107.82999999991,39140,-5.52600008747103E-05,0.0400162688438623,6.50032969758145,5.6447,1411,1566,1472,1520,-0.00275692927243731,-0.0124365178965133,0.000367296695025547,-0.00135824372325893,-0.712827357009495,-9.8285352389035,0.455918935393789,-0.505357210083042,-20.8716000602836,0.06477768951456,-0.00440547208541483,-0.119184898690189,-0.0752584725770471,-0.0434622869036091,-0.00530123898721169,0.113430759335564,0.0985000256377757,9.64086987442991E-07,-0.000698282342760054,0.749439719652931,0.0691746929010216,0.818614412553952
107.87999999991,39160,-5.52600008747103E-05,0.0400162688438623,6.50032969758145,5.6447,1411,1566,1472,1520,0.00347050161876856,-0.0162418278454961,0.000138879061639467,-0.00175068500990124,-0.703457393475065,-9.82474617351432,0.452205391123826,-0.507618525427265,-20.8719223621774,0.0648044136447443,-0.00513293738300679,-0.119228841750393,-0.0732291705652816,-0.0470347121227798,-0.00756133065538745,0.113430759335564,0.0985000256377757,9.64086987442991E-07,-0.000698282342760054,0.749361238190519,0.0691688083526399,0.818530046543159
107.92999999991,39180,0.0230501013355424,0.0400122631625997,6.48052403561423,5.6447,1411,1566,1473,1520,0.0212833234429153,-0.0145650914055935,1.10522950256073E-05,0.00378036621024642,-0.713571240604578,-9.7789745660296,0.448597559134504,-0.510061484288981,-20.8723091603219,0.0654281771302343,-0.00596388030716647,-0.119268315112573,-0.0709914918162388,-0.0505748992385648,-0.00764082485566604,0.113085150534236,0.0985000256377757,-0.000402224468333033,-0.000698212443622028,0.747637835590475,0.0692999522500134,0.816937787840489
107.97749999991,39200,0.0115022592261192,0.0200091037665087,6.46072941117403,5.5668,1412,1566,1473,1521,0.0191928817553879,-0.00119034187391054,-7.45420597021348E-05,-0.00208584933164604,-0.69698090831401,-9.74439786982044,0.445114217719148,-0.512674759458775,-20.8726670466424,0.0665005947890525,-0.0063494698604649,-0.119269349767295,-0.0683019146210803,-0.0537043197539252,-0.00644549036960627,0.112739734337755,0.0971406706377757,-0.000200714623523581,-0.000349157312160225,0.742591930277469,0.0679869145091421,0.810578844786611
108.02999999991,39220,-5.5260007025903E-05,0.0400162688475072,6.50032969758148,5.5668,1411,1566,1472,1521,0.00563527662809424,0.00287691048964011,-0.000292066947556752,-0.00181356062660931,-0.687059349194919,-9.84026364138521,0.441770888890303,-0.515435020441936,-20.8729891974193,0.0671933222120513,-0.00622924791699975,-0.11923967469146,-0.0653729632756511,-0.0563637390775209,-0.00716681511499422,0.113430759335565,0.0971406706377757,9.64087094787081E-07,-0.000698282342823646,0.747377112758204,0.0679809202890049,0.815358033047209
108.07749999991,39240,-5.5260007025903E-05,0.0400162688475072,6.50032969758148,5.6447,1411,1566,1472,1520,-0.000128290550689543,-0.0020548561260528,0.000648507578178543,0.00643257661402125,-0.706833110038319,-9.827634514287,0.438571106583271,-0.518319496830592,-20.8734187549352,0.067316395445992,-0.00621055633323847,-0.119224377199035,-0.0625892685953722,-0.0589988673042972,-0.00986512880322458,0.113430759335565,0.0985000256377757,9.64087094787081E-07,-0.000698282342823646,0.749251644352922,0.0691452521466268,0.818396896499549
108.12999999991,39260,-5.5260007025903E-05,0.0400162688475072,6.50032969758148,5.6447,1411,1566,1472,1520,0.000999691594270188,-0.0120591369974612,-6.09381070922308E-05,-0.00210656523412289,-0.711798432652079,-9.82218905875954,0.43551422253294,-0.521326264895922,-20.8739670470209,0.0672685204359352,-0.00656768697346126,-0.11923273260314,-0.0596896735979256,-0.0612863011671267,-0.01202353593748,0.113430759335565,0.0985000256377757,9.64087094787081E-07,-0.000698282342823646,0.749283638811926,0.0691546850590698,0.818438323870996
108.17999999991,39280,0.0230501013355424,0.0400122631625997,6.48052403561423,5.5668,1411,1566,1473,1521,0.0125871893087487,-0.0107051581010444,-0.000140590115118283,-0.00194360314602297,-0.68596205962246,-9.77797143178849,0.432604329579678,-0.524458203049648,-20.8745626754967,0.0676367550928472,-0.00716393476044493,-0.119254153687993,-0.0566231438185231,-0.0637548571697988,-0.0117482322715521,0.113085150534236,0.0971406706377757,-0.000402224468333033,-0.000698212443622028,0.744783369126022,0.0679643414835494,0.812747710609572
108.22999999991,39300,0.0230501013355424,0.0400122631625997,6.48052403561423,5.5668,1411,1566,1473,1521,0.0209127293948315,-0.00627402074874448,-5.95584729657159E-06,0.00366827122145093,-0.693796450456759,-9.78080377120843,0.429853269087024,-0.527706112945943,-20.8751495096932,0.0684897467362102,-0.00762695325253444,-0.119266808844375,-0.0533359787090777,-0.0659596632922259,-0.0117485497098684,0.113085150534236,0.0971406706377757,-0.000402224468333033,-0.000698212443622028,0.744777307418123,0.0679540812093778,0.812731388627501
108.27999999991,39320,0.0115022592258648,0.0200091037590534,6.46072941116284,5.5668,1412,1566,1473,1521,0.0143130025535087,0.00512849042337652,0.000403666264674271,-0.00298815730530598,-0.695444923559295,-9.74251882246102,0.427275183153069,-0.531054824956859,-20.8756996903306,0.0694069690365159,-0.00763757529385259,-0.119242643846164,-0.0497990144419498,-0.0678288995613225,-0.00993060437744691,0.112739734337559,0.0971406706377757,-0.000200714623519148,-0.000349157312030144,0.742394953978938,0.0679499733169048,0.810344927295843
108.32749999991,39340,-5.5260007025903E-05,0.0400162688475072,6.50032969758148,5.6447,1411,1566,1472,1520,-0.00201856311364035,0.0036990149227148,0.000722608973808138,-0.00196882284112988,-0.700595835555909,-9.84320240363334,0.424875299398092,-0.534483846551379,-20.8761980004945,0.0697638633946364,-0.00732417910682336,-0.119202212061434,-0.0461832378794005,-0.0693054502568583,-0.0109735657062768,0.113430759335565,0.0985000256377757,9.64087094787081E-07,-0.000698282342823646,0.749318703333158,0.0691282527604659,0.818446956093624
108.37749999991,39360,0.0230501013355424,0.0400122631625997,6.48052403561423,5.6447,1411,1566,1473,1520,-0.00122682985683382,-0.00456167833114081,0.00016249285665742,0.00312197008409136,-0.709042841284107,-9.77549168924569,0.422652814420778,-0.537974406917832,-20.876811474193,0.0696179590729061,-0.00737579679658129,-0.119207785835867,-0.0427418887564666,-0.0705542025290868,-0.0130987289719906,0.113085150534236,0.0985000256377757,-0.000402224468333033,-0.000698212443622028,0.746722205004416,0.0691271689849141,0.81584937398933
108.42999999991,39380,0.0230501013355424,0.0400122631625997,6.48052403561423,5.6447,1411,1566,1473,1520,0.00727916612779424,-0.0122678289820262,-0.000330210385129137,-0.00701448915877281,-0.717598250846198,-9.78005667494397,0.42060248055119,-0.541537434951147,-20.8774584181203,0.0697176615301407,-0.00782462555420272,-0.119224174983696,-0.0392513443268022,-0.0718134592013953,-0.012846230132824,0.113085150534236,0.0985000256377757,-0.000402224468333033,-0.000698212443622028,0.748309192370581,0.0694366919539329,0.817745884324514
108.479999999909,39400,0.0230501013355424,0.0400122631625997,6.48052403561423,5.5668,1411,1566,1473,1521,0.0174045477513034,-0.00665667137410601,-0.000195021071311251,-0.00197525797060721,-0.685027711253328,-9.78159043102152,0.418732410317848,-0.545166814763427,-20.8781011743826,0.0703877922816887,-0.00832513225768198,-0.119246480887361,-0.03545897447125,-0.0730914934795169,-0.0128655751684623,0.113085150534236,0.0971406706377757,-0.000402224468333033,-0.000698212443622028,0.744721968541381,0.0679442705826871,0.812666239124068
108.529999999909,39420,0.0115022592258584,0.0200091037590598,6.46072941116286,5.5668,1412,1566,1473,1521,0.015895402693207,0.00191830366993426,0.000565836296338217,0.00256225370915515,-0.692787775021159,-9.74070419917985,0.417056476791628,-0.54885127944476,-20.8787069235517,0.0712774312176468,-0.00847076057840267,-0.119238025749913,-0.0315228939353721,-0.0741979418812127,-0.0110313804052428,0.11273973433756,0.0971406706377757,-0.000200714623519055,-0.000349157312030253,0.742129955244579,0.0678917658503833,0.810021721094962
108.577499999909,39440,0.0115022592258584,0.0200091037590598,6.46072941116286,5.5668,1412,1566,1473,1521,0.00720881074607599,0.00759519343810219,0.000713384964236128,-0.00394785414106651,-0.686609190221409,-9.74843710024075,0.415581632274634,-0.552573757398123,-20.8792112800058,0.071867824747292,-0.00819241507239343,-0.119203006608318,-0.0275266763746538,-0.0747713140857583,-0.00921282209204281,0.11273973433756,0.0971406706377757,-0.000200714623519055,-0.000349157312030253,0.740973031333657,0.0676365568134123,0.808609588147069
108.629999999909,39460,0.0230504587244532,0.0400124671711757,6.48052403348879,5.6447,1411,1566,1473,1520,-0.000733011749587832,0.00277674884890593,0.00065769535077094,-0.00207655572449576,-0.699531134071117,-9.79881701077972,0.414302641499109,-0.556317375912197,-20.8796502094409,0.072012594882889,-0.00788306622211295,-0.119168846883208,-0.0236560503631115,-0.0750666949859652,-0.0090000683422128,0.113085150497147,0.0985000256377757,-0.000402230704769536,-0.000698216003571668,0.746931566537859,0.0691224193085533,0.816053985846412
108.679999999909,39480,0.0230504604097719,0.040012056238492,6.48052403668825,5.6447,1411,1566,1473,1520,0.00379641440778856,-0.00310461823928999,0.000672167402446745,0.00277622463243538,-0.70918534388986,-9.79115692231621,0.413212814399226,-0.560070455410425,-20.8801135567374,0.0720848906441153,-0.00792935572224699,-0.119164274126892,-0.0199379311888358,-0.0752808571508623,-0.0093985194731604,0.113085150552978,0.0985000256377757,-0.000402230734178345,-0.000698208832796342,0.746856969495401,0.0691228460267295,0.815979815522131
108.729999999909,39500,0.0114915043814749,0.0600264424450253,6.46071202122548,5.6447,1411,1567,1473,1520,0.00789136376555102,-0.0112745440431478,0.000851050146923093,-0.00690049651724858,-0.709104651339331,-9.74652793651145,0.412313626650407,-0.563832436140107,-20.8805466312787,0.0723326211504896,-0.0082743742017237,-0.119178293899434,-0.016056468920968,-0.0753627229053314,-0.00768800126447085,0.112739430883153,0.0985000256377757,-0.000200526951484555,-0.00104745987210033,0.74453157351428,0.0691237950177473,0.813655368532027
108.779999999909,39520,0.0230504604097719,0.040012056238492,6.48052403668825,5.6447,1411,1566,1473,1520,0.0173350850470346,-0.00458397043064609,0.000330007200482815,-0.00199223992560597,-0.700200851245976,-9.79100023898512,0.411613720691854,-0.567595771605961,-20.880938599849,0.0730132390800999,-0.00869255682694769,-0.119198719265477,-0.0118996100022331,-0.0752331782972339,-0.00817528196717943,0.113085150552978,0.0985000256377757,-0.000402230734178345,-0.000698208832796342,0.746888496249744,0.0691270807851594,0.816015577034903
108.829999999909,39540,0.0115022592195673,0.0200091037625966,6.46072941116288,5.6447,1412,1566,1473,1520,0.0126173566789386,0.00394290116355823,0.000415543002374207,0.00197059634338281,-0.710125862933737,-9.74688828349405,0.411124527222194,-0.571351402780514,-20.8812975450844,0.0737747171822424,-0.00869381381539124,-0.119187834031737,-0.00765845397288344,-0.0750013399963281,-0.00626189348537334,0.11273973433756,0.0985000256377757,-0.000200714623409262,-0.000349157312091953,0.744533820502047,0.069132983224639,0.813666803726686
108.877499999909,39560,0.0115022592195673,0.0200091037625966,6.46072941116288,5.6447,1412,1566,1473,1520,0.00464609909287453,0.00721197148958396,9.98565300330725E-05,-0.00465844701397376,-0.710342044555007,-9.75275291799475,0.410848629923012,-0.575083636159931,-20.8815706096556,0.0742063592952973,-0.00837954376572399,-0.119160947676117,-0.00343125644752101,-0.0743127470009544,-0.00470323785473353,0.11273973433756,0.0985000256377757,-0.000200714623409262,-0.000349157312091953,0.744620331027085,0.0691427881431877,0.813763119170273
108.927499999909,39580,0.0230504587244532,0.0400124671711757,6.48052403348879,5.5668,1411,1566,1473,1521,-0.000195877547787474,0.000958124006216134,-0.000685785579063547,-0.00194816262821308,-0.685306577813228,-9.79515771695055,0.410779368384068,-0.578780065861716,-20.8818261804965,0.0742897201895897,-0.00815781467917182,-0.11913205995747,0.000684495201954294,-0.0733104757253349,-0.00553151661158,0.113085150497147,0.0971406706377757,-0.000402230704769536,-0.000698216003571668,0.744932143422359,0.0679658328157976,0.812897976238157
108.979999999909,39600,0.0230504587244532,0.0400124671711757,6.48052403348879,5.5668,1411,1566,1473,1521,0.00630228017260457,-0.00331694070972035,6.99249747396839E-05,0.00223105842466675,-0.691508792576113,-9.79019994902682,0.4109117903162,-0.582428253318638,-20.8821177164834,0.0744331297400192,-0.00825679835622664,-0.119142181381885,0.00464323795573496,-0.0725530948752293,-0.00608834761021088,0.113085150497147,0.0971406706377757,-0.000402230704769536,-0.000698216003571668,0.74422984636012,0.0678282895978282,0.812058135957948
109.029999999909,39620,0.0230504587244532,0.0400124671711757,6.48052403348879,5.6447,1411,1566,1473,1520,0.00997511144578534,-0.00446929124987514,0.000571243794101376,-0.00831127600448157,-0.709057983242265,-9.78918714138454,0.411247694931956,-0.586029216673498,-20.8824320943458,0.0748194177058753,-0.00845531420020039,-0.119159148836163,0.00875993777156413,-0.071581306946776,-0.00648828289485917,0.113085150497147,0.0985000256377757,-0.000402230704769536,-0.000698216003571668,0.746942251429655,0.0691387571366511,0.816081008566306
109.079999999909,39640,0.0346131993430146,0.0200072074554395,6.44091850507946,5.6447,1412,1566,1474,1520,0.0163509579926207,0.00395268280876395,0.000934860437066341,-0.00132402555928962,-0.704464183020912,-9.69835304840769,0.411789143669136,-0.589578743691278,-20.8826959275715,0.0755203587285127,-0.00850642999320293,-0.119152268576614,0.0128948697359519,-0.0705534332214152,-0.00331023616787313,0.112394034026404,0.0985000256377757,-0.000604000528563437,-0.00034912422153207,0.742182157525381,0.0691423393826312,0.811324496908012
109.129999999909,39660,0.023050458724644,0.0400124671787709,6.48052403349993,5.6447,1411,1566,1473,1520,0.00851522856999554,0.00795056253109396,0.000209219934983962,0.00209018932814001,-0.710960287647118,-9.80894169152808,0.412538386412016,-0.593062948955207,-20.8828185841802,0.0761266052175439,-0.0081839098203421,-0.119109724083239,0.0170544165470614,-0.0688383049167481,-0.00266920484746886,0.113085150497342,0.0985000256377757,-0.000402230704772853,-0.000698216003704198,0.747160203962865,0.0691595537631034,0.816319757725969
109.179999999909,39680,0.023050458724644,0.0400124671787709,6.48052403349993,5.6447,1411,1566,1473,1520,0.00415134989576094,0.00411491725492207,0.000203406178094545,-0.00869542617547682,-0.70939906262636,-9.79475308343547,0.41349440351036,-0.596455358590444,-20.8829771807864,0.076404804519376,-0.00787058584263389,-0.119085269189731,0.021114188997448,-0.066902476437913,-0.00356452507823853,0.113085150497342,0.0985000256377757,-0.000402230704772853,-0.000698216003704198,0.747048263350322,0.0691534978369411,0.816201761187264
109.229999999909,39700,0.023050458724644,0.0400124671787709,6.48052403349993,5.6447,1411,1566,1473,1520,0.00185066322939194,0.00095597033567409,6.28156841136697E-05,-0.00193462694672399,-0.701493978957886,-9.79088558406846,0.414649207071201,-0.599750782830174,-20.8831697281832,0.0765563198586206,-0.00772986504002527,-0.119076918374847,0.0250868803789995,-0.0649447125594,-0.00410788542928927,0.113085150497342,0.0985000256377757,-0.000402230704772853,-0.000698216003704198,0.747032342317935,0.0691597695457061,0.816192111863641
109.279999999909,39720,0.0461621375670549,0.0400084795057581,6.46071142412083,5.6447,1411,1566,1474,1520,0.0132765810010685,0.000249860742069483,-0.000114612017372839,-0.00117255569669433,-0.722451445919526,-9.74805735147204,0.415996351673719,-0.602948799728655,-20.8833362762315,0.0769421590017813,-0.00774869180579733,-0.119064872199593,0.0288117221247252,-0.062874550255615,-0.00240174746731607,0.112739420463676,0.0985000256377757,-0.000805529500572937,-0.000698146418810119,0.746195299814681,0.0694725111075029,0.815667810922184
109.329999999909,39740,0.0461624987197959,0.0400086805414569,6.46071142040582,5.5668,1411,1566,1474,1521,0.0124956084831133,0.00537201160259848,-0.000371349781523336,-0.0130235639956643,-0.693414326544894,-9.75969534430878,0.417534011065465,-0.606041190983012,-20.8833918698026,0.0775674920843443,-0.0075517599730981,-0.119034874955773,0.0326628009105298,-0.0605035098465654,-0.000234035484206906,0.112739420398849,0.0971406706377757,-0.000805535802688245,-0.000698149926883085,0.742845574573892,0.0680007537094712,0.810846328283363
109.379999999909,39760,0.0230500958914951,0.0400122631705002,6.48052403676136,5.6447,1411,1566,1473,1520,0.00675516473134506,0.00821152520787296,-9.84925796032027E-05,-0.00192332538495832,-0.703878414056895,-9.80205583938157,0.419260367198219,-0.60900690223322,-20.8833962656884,0.0781298701484261,-0.00717114954651863,-0.119001100905329,0.0364536224803218,-0.0579139170572845,-0.000521886919923133,0.113085150554254,0.0985000256377757,-0.000402224373334382,-0.000698212443759889,0.747505522457021,0.0692366624358302,0.816742184892851
109.429999999909,39780,0.0230500958914951,0.0400122631705002,6.48052403676136,5.5668,1411,1566,1473,1521,0.00199554694670987,0.00619425690914631,-0.000454342062767421,0.00121480015306617,-0.697709861521185,-9.7941398207901,0.421172918052231,-0.611833402884701,-20.8834436588696,0.0783353892591398,-0.00681118134386588,-0.118960153459798,0.0400490504907392,-0.0549724437851665,-0.00130199671869946,0.113085150554254,0.0971406706377757,-0.000402224373334382,-0.000698212443759889,0.745120187231652,0.0680128375776452,0.813133024809298
109.479999999909,39800,0.0461621375597969,0.0400084795090277,6.46071142413233,5.5668,1411,1566,1474,1521,0.00618601780170377,0.00110758420386079,-1.7673799718496E-05,-0.0132656465124334,-0.694026268770636,-9.74904876966779,0.423261704713704,-0.61451534109172,-20.8834927304669,0.0784865997119948,-0.0066485543766469,-0.118931843280704,0.0434605656187527,-0.0520796795819898,-0.000129505152888948,0.112739420463877,0.0971406706377757,-0.000805529500446282,-0.000698146418867201,0.742848960860937,0.0680189450640885,0.810867905925026
109.527499999909,39820,0.0461621375597969,0.0400084795090277,6.46071142413233,5.5668,1411,1566,1474,1521,0.0111869945328827,0.00439613616540806,0.000284641723753884,-0.00194081247891697,-0.687557812193321,-9.75363671312348,0.425517288208102,-0.617048654024906,-20.8834614109872,0.0789607407624495,-0.00652264560274152,-0.118903076931483,0.0468124494570631,-0.0491029978364917,0.0013447658334156,0.112739420463877,0.0971406706377757,-0.000805529500446282,-0.000698146418867201,0.742876712429228,0.0680235439789051,0.810900256408133
109.579999999908,39840,0.0346058942709946,0.0200033588435417,6.50032909967575,5.5668,1411,1565,1473,1521,0.0132447086437219,0.00759297075567376,0.000501522809123895,-0.00260039302491467,-0.699901217563391,-9.8566014390995,0.42793865272268,-0.619419649811156,-20.883363213579,0.079574982050741,-0.00624301748095686,-0.118864313759722,0.0500185858378206,-0.0457358587285193,0.0019922940985126,0.11343074890211,0.0971406706377757,-0.000603873055056669,-0.000349057063254457,0.747502977355585,0.0679725704847371,0.815475547840322
109.627499999908,39860,0.0346062586541678,0.0200035616527051,6.50032909639805,5.6447,1411,1565,1473,1520,0.00435604876441038,0.013825175970581,0.000448933252291627,-0.0100208610690686,-0.710940751357138,-9.84220626797922,0.430522614810249,-0.621610552611965,-20.8833423343476,0.0800218921593157,-0.00565218986779092,-0.118818033587867,0.0532444711900284,-0.0420276450961299,-0.000984976222821996,0.113430748844914,0.0985000256377757,-0.00060387941354303,-0.000349060602274355,0.749712549516259,0.0692112124559575,0.818923761972216
109.677499999908,39880,0.023050458725261,0.0400124671775623,6.4805240334987,5.5668,1411,1566,1473,1521,-0.00887077589302914,0.00708014685088259,0.000306443853023178,-0.00184564001638278,-0.688648147033866,-9.79573205875368,0.433258825271342,-0.623619830945387,-20.8833631047299,0.0798881542531412,-0.00506194948152047,-0.118756153425589,0.0561858669515953,-0.0383283361669047,-0.000342531715505217,0.11308515049732,0.0971406706377757,-0.000402230704783609,-0.000698216003683104,0.745210651006854,0.0680218485127095,0.813232499519564
109.729999999908,39900,0.0461621375597969,0.0400084795090277,6.46071142413233,5.5668,1411,1566,1474,1521,0.000205415204899801,-0.000257844673332233,0.000634273979600133,-0.00243565897810831,-0.700749765900299,-9.75127456240878,0.436133630428091,-0.625443383015038,-20.8833685959054,0.0796197158213914,-0.00493895311352315,-0.118732730194049,0.05875323610747,-0.0347524463232332,0.000481034850188946,0.112739420463877,0.0971406706377757,-0.000805529500446282,-0.000698146418867201,0.742706662751126,0.0679952151856672,0.810701877936793
109.779999999908,39920,0.0577193996391229,0.0200012672309831,6.4805147763859,5.5668,1411,1565,1474,1521,0.00968277439825248,0.0008071782139638,0.000511109988818869,-0.014117615069163,-0.691612585042474,-9.79801735002883,0.439137162441546,-0.627088117804331,-20.8833298380441,0.079853102236915,-0.00499099001531921,-0.118718615216178,0.0613512085876601,-0.0310722941321789,0.000485194873247397,0.113084988960702,0.0971406706377757,-0.00100720372373051,-0.000349020564615323,0.744830756687814,0.0679277856037631,0.812758542291577
109.829999999908,39940,0.0577193996391229,0.0200012672309831,6.4805147763859,5.5668,1411,1565,1474,1521,0.0152302786495167,0.0115652618731281,0.000865690447018641,-0.00115212069722977,-0.685177917576501,-9.79127488014063,0.442267279328434,-0.628546899831199,-20.8833225214148,0.0805503823896932,-0.00469810194758751,-0.118680007893914,0.0638666662585039,-0.0273643549908507,-0.000163410471363834,0.113084988960702,0.0971406706377757,-0.00100720372373051,-0.000349020564615323,0.743920491532929,0.0677595475156003,0.811680039048529
109.879999999908,39960,0.034605894271001,0.0200033588435417,6.50032909967576,5.6447,1411,1565,1473,1520,0.00176033633343659,0.0167087859184463,0.000266706755072762,-0.00316375159871547,-0.718844975335703,-9.83080087584823,0.44552275052212,-0.629801682738032,-20.8833923311644,0.0809784492005098,-0.00396359868585875,-0.118620286600368,0.0662613635304886,-0.02303430114373,-0.00276984090357161,0.11343074890211,0.0985000256377757,-0.000603873055056793,-0.000349057063254457,0.749788454837497,0.0692532555913791,0.819041710428876
109.929999999908,39980,0.0230558594939359,1.98917799249327E-07,6.48053276646056,5.6447,1412,1565,1473,1520,-0.00800644395785874,0.0145280255630163,0.000790519694413186,-0.00660296987470953,-0.713868683708745,-9.77607223044504,0.448889911749511,-0.630846714333322,-20.8835707991607,0.0808104508028485,-0.00320241861116021,-0.118549684136325,0.0683343690830126,-0.0189405288588568,-0.00369331564753307,0.113085302887505,0.0985000256377757,-0.000402324948196986,-1.92255024362709E-09,0.74737896095673,0.0692601091616589,0.816639070118389
109.979999999908,40000,0.0230500958988294,0.0400122631673261,6.48052403674993,5.5668,1411,1566,1473,1521,-0.0143237782970429,0.00288044272615573,0.000534244200781586,-0.0016774306061337,-0.690274556381053,-9.78684203464686,0.452349573318605,-0.631688854914626,-20.8837401040748,0.0802091443380993,-0.00271365170303075,-0.118493529656511,0.0700226103911523,-0.0148800197618948,-0.00289501744526294,0.113085150554054,0.0971406706377757,-0.000402224373462401,-0.000698212443704497,0.745221078535188,0.0680371432607725,0.81325822179596
110.029999999908,40020,0.0577193996391865,0.0200012672232798,6.48051477639702,5.5668,1411,1565,1474,1521,0.00338255506994959,-0.00264721010062631,0.000311931189891735,-0.00656329675073854,-0.707524325446206,-9.79349783865594,0.455886993917105,-0.632333891394744,-20.8838713637946,0.0799032715502236,-0.00279152578849293,-0.118478326000418,0.0714420414139444,-0.0109742907068922,-0.00272414683473763,0.113084988960896,0.0971406706377757,-0.00100720372373162,-0.000349020564480887,0.745603763693775,0.0681015457343229,0.813705309428098
110.079999999908,40040,0.0577193996391865,0.0200012672232798,6.48051477639702,5.5668,1411,1565,1474,1521,0.0105612941072025,0.00322411267788286,0.000399903600374561,-0.013961416765235,-0.697088009761081,-9.78741691066672,0.459498001647828,-0.632788195784469,-20.8840174319148,0.0802702749562492,-0.00278571523937453,-0.118457878328032,0.0729820266123863,-0.00711243223985056,-0.0030919266074772,0.113084988960896,0.0971406706377757,-0.00100720372373162,-0.000349020564480887,0.745602866361342,0.068109551638129,0.813712417999471
110.127499999908,40060,0.0577193996391865,0.0200012672232798,6.48051477639702,5.5668,1411,1565,1474,1521,0.0130638321055722,0.0134297723173979,0.000562162672504039,-0.000924835538765913,-0.695973989877116,-9.78578814553288,0.463182223224427,-0.633044274468018,-20.8841793962679,0.0809266408424067,-0.00237854538004851,-0.118402203757779,0.0744059974225512,-0.00308556766605283,-0.0033790035373416,0.113084988960896,0.0971406706377757,-0.00100720372373162,-0.000349020564480887,0.745549168354056,0.0681109130699553,0.813660081424012
110.177499999908,40080,0.0230554969142963,3.27597132190742E-12,6.48053276925418,5.5668,1412,1565,1473,1521,-0.000369178871614321,0.0214163371583005,0.000473622032444875,-0.00416551900944133,-0.70306122472485,-9.79404305121515,0.466932683001258,-0.633086775363336,-20.8843192172183,0.0813351086174364,-0.00149481419314608,-0.118315955217338,0.0755451966207,0.00128800577597428,-0.00203312112967712,0.113085302936253,0.0971406706377757,-0.000402318621182282,1.54850816853624E-09,0.74509481990895,0.0680062389243106,0.81310105883326
110.229999999908,40100,0.0346062586543269,0.0200035616603385,6.50032909640917,5.6447,1411,1565,1473,1520,-0.0141864080174107,0.0138584234778523,8.67922622188328E-05,-0.0101415585204891,-0.715121324287023,-9.84016388238889,0.470734186925996,-0.632906368055062,-20.8844438518802,0.0808811856204523,-0.00051308629707947,-0.118240275400029,0.0763902313971005,0.00584471509774085,-0.00346900749631438,0.113430748845108,0.0985000256377757,-0.000603879413545819,-0.000349060602407567,0.750328953690515,0.069338332024505,0.81966728571502
110.279999999908,40120,0.0346062586543269,0.0200035616603385,6.50032909640917,5.5668,1411,1565,1473,1521,-0.0189492761988993,0.00149424858927858,-0.000439840848652641,-0.000819738501945891,-0.698293440458855,-9.82388848513519,0.474563084242003,-0.632509615175681,-20.8846826321064,0.0800143570983296,-0.00010534884613506,-0.118194582144414,0.0767760392413407,0.0101067652401434,-0.00593000730580853,0.113430748845108,0.0971406706377757,-0.000603879413545819,-0.000349060602407567,0.748044027820556,0.068149415392875,0.816193443213431
110.329999999908,40140,0.0577190361005778,0.0200014685160247,6.48051477851273,5.5668,1411,1565,1474,1521,0.00228217971909598,-0.00461413157159616,0.000440694693503109,-0.00700007360508088,-0.709798672249534,-9.77907756941164,0.478404139078936,-0.631915566652501,-20.8849808395857,0.0795948161123986,-0.000272092773693424,-0.118183957980567,0.0768685795604944,0.0137613595297683,-0.00581310767387024,0.113084988997815,0.0971406706377757,-0.00100719737998289,-0.000349024077039274,0.745737952771834,0.0681553708518769,0.813893323623711
110.379999999908,40160,0.0577190361005778,0.0200014685160247,6.48051477851273,5.6447,1411,1565,1474,1520,0.0103641497231267,0.00160876325391897,0.000659550728019134,-0.0136149325866244,-0.714835225098374,-9.78172035572891,0.48225589073916,-0.631131374388078,-20.8852690955983,0.079931333056457,-0.000358491967476036,-0.11818380143398,0.0771760937793694,0.0175257115050458,-0.00575427024601545,0.113084988997815,0.0985000256377757,-0.00100719737998289,-0.000349024077039274,0.747957574376217,0.069360432869675,0.817318007245892
110.429999999908,40180,0.0461678987278539,1.95945997093826E-07,6.46072015288839,5.5668,1412,1565,1474,1521,0.00967260238168712,0.0154553114846676,0.000710717099476306,4.54050857031587E-05,-0.703350516589484,-9.74087623913543,0.486120179976697,-0.630161367391756,-20.8855022387565,0.0805221329883771,7.01312169490206E-05,-0.11811039050182,0.0774137637986443,0.0213488246356599,-0.00355689505604794,0.11273957278067,0.0971406706377757,-0.000805630032828866,-1.87069230794812E-09,0.743460674409266,0.068170204638535,0.811630879047801
110.477499999908,40200,0.0230554969142963,3.27597132190742E-12,6.48053276925418,5.5668,1412,1565,1473,1521,-0.00820389686866459,0.0210072054236265,0.000468103565151092,-0.00461992984009842,-0.70856819328067,-9.79534837993604,0.48999150877546,-0.628988800288569,-20.8856369966588,0.080628574223767,0.00102256386020163,-0.118000719749836,0.0773761204214829,0.0255881348866912,-0.00235239037059254,0.113085302936253,0.0971406706377757,-0.000402318621182282,1.54850816853624E-09,0.745934144192326,0.0681785135466111,0.814112657738937
110.529999999908,40220,0.0346062586543205,0.0200035616603385,6.50032909640917,5.6447,1411,1565,1473,1520,-0.016022019949991,0.00858417766684352,-0.000403186650039974,-0.00969744340315259,-0.724623084631606,-9.82866227932525,0.493851976346087,-0.627598762589029,-20.8858067380459,0.0799362530493019,0.00181253889715172,-0.117940126286781,0.0769556860216001,0.029988077488275,-0.00474779353916274,0.113430748845108,0.0985000256377757,-0.000603879413545695,-0.000349060602407567,0.75183927180687,0.0696634540244957,0.821502725831366
110.577499999908,40240,0.0577190361005842,0.0200014685160247,6.48051477851273,5.5668,1411,1565,1474,1521,-0.0140352767526678,-0.000447754144500314,-8.14507641434692E-05,-0.000774423422977021,-0.699906568086837,-9.76885259773633,0.497679237721269,-0.626008351522768,-20.8860936531502,0.0791275102633789,0.00200617542937878,-0.117916239340997,0.0761405961065398,0.0336789988696784,-0.00606726632056514,0.113084988997815,0.0971406706377757,-0.00100719737998302,-0.000349024077039274,0.745801702216775,0.0681940849091184,0.813995787125893
110.629999999908,40260,0.0577193988018164,0.0200016683530042,6.48051477479261,5.5668,1411,1565,1474,1521,0.00182519871157656,-0.00171609998569024,-0.000244293074007037,-0.00720783680720114,-0.711604733737136,-9.77987147864332,0.5014635498729,-0.624234297027453,-20.8863755811967,0.0788755299172399,0.00185321656969093,-0.117939449209843,0.0752344082528609,0.0371795239301518,-0.00490362012335348,0.113084988932899,0.0971406706377757,-0.00100720370911953,-0.000349027564194588,0.745972569641268,0.0682018576855766,0.814174427326844
110.677499999907,40280,0.0461678987279175,1.95953395064015E-07,6.46072015289959,5.5668,1412,1565,1474,1521,0.00329627956142351,0.00636947894439115,9.65903141354801E-06,-0.00976279743779213,-0.702031794267897,-9.74248676142236,0.505206206889266,-0.622293539883639,-20.8865696334365,0.0790273531049997,0.00198163248848961,-0.117936164184517,0.0744574332508071,0.0404968012006607,-0.0028328116945328,0.112739572780866,0.0971406706377757,-0.000805630032829982,-1.87082141223094E-09,0.743674239716467,0.068207720531561,0.811881960248028
110.729999999907,40300,0.0461678987279175,1.95953395064015E-07,6.46072015289959,5.5668,1412,1565,1474,1521,0.000213132909259192,0.0128321684264927,0.000326865378003935,0.000140089984441864,-0.705548875400652,-9.74701096333924,0.508904421997434,-0.620184226722938,-20.8866653349739,0.0791596986269345,0.00247244747290025,-0.117888882697198,0.0734668808795641,0.0438774072537769,-0.00104029331454241,0.112739572780866,0.0971406706377757,-0.000805630032829982,-1.87082141223094E-09,0.743722325057068,0.0682133913189111,0.811935716375979
110.779999999907,40320,0.0230554969142963,3.27597132190742E-12,6.48053276925418,5.5668,1412,1565,1473,1521,-0.0116183346437214,0.0145190000512207,0.000255859350806336,-0.00492772489749838,-0.710266213408039,-9.79355584968832,0.512548439229597,-0.617900417673084,-20.8866988034018,0.0789395139213894,0.00316414697102115,-0.117815295337538,0.0722505374808631,0.0474811285682781,-0.000911239716595225,0.113085302936253,0.0971406706377757,-0.000402318621182282,1.54850816853624E-09,0.746139220435312,0.0682198767903316,0.814359097225644
110.829999999907,40340,0.0577190361005778,0.0200014685160247,6.48051477851273,5.6447,1411,1565,1474,1520,-0.0120456892505756,0.000860777880596544,0.000310516868014556,-0.0135189891635186,-0.717894468720739,-9.77939484826373,0.51612527065094,-0.615434849596179,-20.8868051990065,0.0782397615094803,0.00356603477619539,-0.117787829285808,0.070742406750935,0.0509895376531146,-0.00310746803072997,0.113084988997815,0.0985000256377757,-0.00100719737998289,-0.000349024077039274,0.748435664726195,0.0694573465324867,0.817893011258682
110.879999999907,40360,0.0461678987278539,1.95945997093826E-07,6.46072015288839,5.5668,1412,1565,1474,1521,-0.00547715050340236,0.00228939941743775,0.00138783303466555,0.00026264372932075,-0.706726920102531,-9.73746484900971,0.519617100398185,-0.612816862350243,-20.8869306540911,0.0778566537504365,0.00362124277124652,-0.117727494098324,0.0689807002395586,0.0537589968988548,-0.00140120787275911,0.11273957278067,0.0971406706377757,-0.000805630032828866,-1.87069230794812E-09,0.743712162022954,0.0682286556238306,0.811940817646785
110.929999999907,40380,0.0461678987278539,1.95945997093826E-07,6.46072015288839,5.5668,1412,1565,1474,1521,-0.00072999723618804,0.00455162815947326,0.00192461019340044,-0.00771131342693217,-0.713340647426248,-9.7465203043634,0.523022425917696,-0.610057253083124,-20.8869516381797,0.0777084602258265,0.00375733236368758,-0.117633881336529,0.0671888350120277,0.0565993954305759,0.000491458725792697,0.11273957278067,0.0971406706377757,-0.000805630032828866,-1.87069230794812E-09,0.743861562170824,0.0682331598732114,0.812094722044036
110.979999999907,40400,0.0577193988080313,-0.0200016683569163,6.48051477480327,5.5668,1412,1564,1474,1521,-0.00289401630863189,0.00882134535461291,0.0023328781669599,-0.0100618318485951,-0.702997927773739,-9.79842147934607,0.5263368480338,-0.60715847595064,-20.8868887752,0.0776280108739992,0.00409039169851578,-0.117498555726065,0.0653654292243806,0.0594085920980001,0.00159369254409248,0.113084988933085,0.0971406706377757,-0.00100720370922796,0.000349030661393531,0.746318045841483,0.0682376338380248,0.814555679679508
111.027499999907,40420,0.0346058942709946,-0.0200033588501637,6.50032909967574,5.5668,1412,1564,1473,1521,-0.00606864034334245,0.0146538288773986,0.00205169915752597,0.00116682388145924,-0.711860550821265,-9.83990398460693,0.529550272706263,-0.604116726480538,-20.8868346035957,0.077480303942342,0.00469783333449368,-0.117338316929274,0.0631711296775185,0.062261581649624,0.000211582728215201,0.11343074890211,0.0971406706377757,-0.000603873055056669,0.000349060160500702,0.748663997418753,0.0682428341609057,0.816906831579659
111.079999999907,40440,0.046167537828972,3.37774907171425E-12,6.46072015612399,5.5668,1412,1565,1474,1521,-0.019492163647728,0.0106068106029263,0.0019512668357921,-0.00791229558559857,-0.713928727784846,-9.72596551851734,0.532652408126395,-0.600933023497376,-20.8868423531393,0.0767811489853871,0.00535817709381474,-0.117189651476401,0.0608164965781488,0.0650012364078324,-0.000115366368416016,0.112739572837132,0.0971406706377757,-0.000805623735143369,1.54850640168291E-09,0.74372687321562,0.0682467098015575,0.811973583017177
111.129999999907,40460,0.0461675378217267,0,6.46072015613547,5.5668,1412,1565,1474,1521,-0.0155076360703891,-0.00171934959340177,0.00252620875202854,-0.0090559673596085,-0.703804876235316,-9.74270653723293,0.535626712949646,-0.597627771860648,-20.8868112737508,0.0758231272487962,0.00556066858115188,-0.117064146412738,0.0581279209924235,0.0671552658470808,0.00159021768206595,0.112739572837332,0.0971406706377757,-0.00080562373501693,1.54856534329006E-09,0.743935444088313,0.0682494532109034,0.812184897299217
111.177499999907,40480,0.0577193988018419,0.020001668360504,6.48051477480362,5.5668,1411,1565,1474,1521,-0.00647029481579444,-0.00310153684360923,0.00297079738714014,-0.000328441095866418,-0.703484819117949,-9.80191297619665,0.53846182416656,-0.59422403882719,-20.8866986371339,0.0753062860868997,0.00543681122506917,-0.116931439397295,0.055321011111459,0.0690042228737976,0.00225937325408155,0.113084988933091,0.0971406706377757,-0.00100720370911996,-0.000349027564325459,0.746387647880055,0.0682517881389773,0.814639436019032
111.229999999907,40500,0.0577193985386319,-0.020001273765808,6.48051477526928,5.5668,1412,1564,1474,1521,0.00626019698020075,0.00395248194654035,0.00289885113290734,-0.0109465408741233,-0.716961539246404,-9.78342037483415,0.541157777773318,-0.590724916577991,-20.8866185771088,0.0753853946913362,0.00535255613758885,-0.11679137197587,0.0525053341395646,0.0708916124936716,0.00116867552729932,0.113084988941217,0.0971406706377757,-0.00100720370452695,0.000349023775778692,0.746318502078665,0.0682553181422405,0.814573820220906
111.279999999907,40520,0.0346058942710201,-0.0200033588436372,6.50032909967573,5.5668,1412,1564,1473,1521,-0.00114986941984001,0.0177645530009579,0.0026840327868192,-0.00469181905151048,-0.705652496269996,-9.8382532640099,0.543713786021952,-0.587135886081859,-20.8865775917793,0.075600109794301,0.00591508320867652,-0.116604518900557,0.0497240328461896,0.072770326955255,-0.000141391847605065,0.113430748902109,0.0971406706377757,-0.000603873055057134,0.000349060160386817,0.74870493069903,0.0682583194663814,0.816963250165411
111.329999999907,40540,0.0230558594939359,-1.98917799249327E-07,6.48053276646056,5.5668,1412,1565,1473,1521,-0.0200308248665187,0.011649200272252,0.00262080402086024,0.000590753992654597,-0.708938512054548,-9.78032288271378,0.546123410633813,-0.583448282287248,-20.8866068009,0.075063866256136,0.00670873504462763,-0.116414609216283,0.0466263580834691,0.0746530091307394,-0.000581906879248751,0.113085302887505,0.0971406706377757,-0.000402324948196986,5.01968096120464E-09,0.746250898218503,0.0682600959664165,0.81451099418492
111.379999999907,40560,0.0230558594939359,-1.98917799249327E-07,6.48053276646056,5.5668,1412,1565,1473,1521,-0.0222298257511092,0.00176423460948918,0.00275408056928509,-0.00475999410781298,-0.711769236851522,-9.78223413742627,0.548371065834709,-0.579675522217953,-20.8866378141928,0.0739754546611154,0.00701789929562414,-0.116256817347813,0.0432230967962206,0.0761631412755611,-0.000680104798856848,0.113085302887505,0.0971406706377757,-0.000402324948196986,5.01968096120464E-09,0.746280131307762,0.0682617399550959,0.814541871262858
111.429999999907,40580,0.0346062586604971,0.0200035616566935,6.50032909640888,5.5668,1411,1565,1473,1521,-0.0148516713436253,-0.0121961732524823,0.00281360107032179,-0.00770435028349555,-0.70479567433425,-9.8331380065423,0.550445797860957,-0.575842202439803,-20.8866774456387,0.0729301317435689,0.00674905508825814,-0.116135123000982,0.0397656007434546,0.0771465144893639,-0.0012347723637431,0.113430748845103,0.0971406706377757,-0.000603879413653474,-0.000349060602343944,0.748781332420099,0.0682633763409801,0.817044708761079
111.479999999907,40600,0.0461678987278539,1.95945997093826E-07,6.46072015288839,5.5668,1412,1565,1474,1521,0.00666636562320195,-0.00768027070888403,0.00308662163388176,0.000591425994247399,-0.709292872896323,-9.73313884108092,0.552345882755623,-0.571967912032679,-20.8867412212057,0.0727953618870453,0.00615976471880696,-0.116031689449289,0.0363246991185528,0.0777636875852584,-0.00107751553800947,0.11273957278067,0.0971406706377757,-0.000805630032828866,-1.87069230794812E-09,0.743842584923542,0.0682632680492909,0.812105852972833
111.529999999907,40620,0.0577193988080313,-0.0200016683569163,6.48051477480327,5.5668,1412,1564,1474,1521,0.0126105615492196,0.0074196233192139,0.00329418322262534,-0.0103453239889815,-0.716850758189698,-9.78621134574111,0.554081697074525,-0.568064002389233,-20.8867943001379,0.0733298190429332,0.00611719566871798,-0.115873696633357,0.0330759332449562,0.0784313587056717,-0.00118446570612417,0.113084988933085,0.0971406706377757,-0.00100720370922796,0.000349030661393531,0.746374725663354,0.0682638712289405,0.814638596892294
111.579999999907,40640,0.0346058942709946,-0.0200033588501509,6.50032909967573,5.5668,1412,1564,1473,1521,-0.00367541862403548,0.0221002453798663,0.00289311855268295,-0.00410673450217745,-0.705982006233416,-9.82603044790741,0.555655282011067,-0.564120203554061,-20.8868942713498,0.0736192682823678,0.00693045891650945,-0.115655259824815,0.0298272877770217,0.0794203613522392,-0.00322067955384809,0.113430748902109,0.0971406706377757,-0.000603873055056669,0.000349060160500485,0.748639501336276,0.0682650448611459,0.816904546197422
111.629999999907,40660,0.0230558594939359,-1.98917786527108E-07,6.48053276646057,5.5668,1412,1565,1473,1521,-0.0258295838575505,0.0117178877215911,0.00210640631718071,0.000615020336361849,-0.709109494742806,-9.77617324380303,0.557055064198556,-0.560118906232348,-20.8870685498384,0.0728594873689527,0.00784908463560136,-0.115475904250648,0.0261077273285816,0.0804618320062253,-0.0033618567362185,0.113085302887505,0.0971406706377757,-0.000402324948196986,5.01968071322523E-09,0.746242682642604,0.0682664598473041,0.814509142489908
111.679999999907,40680,0.0230558594939359,-1.98917786527108E-07,6.48053276646057,5.5668,1412,1565,1473,1521,-0.025251538376683,-0.00156913436229548,0.00132644295886379,-0.00450769743138603,-0.711515112340214,-9.77920924219236,0.558260991973928,-0.55607605652273,-20.8872335930885,0.0715425062753005,0.00806901832133445,-0.115385788091414,0.0220692901205965,0.0810530098774573,-0.00327520306527195,0.113085302887505,0.0971406706377757,-0.000402324948196986,5.01968071322523E-09,0.746274872189558,0.06826830427406,0.814543176463618
111.729999999907,40700,0.0346062586604971,0.0200035616566935,6.50032909640888,5.5668,1411,1565,1473,1521,-0.0143060109014634,-0.0189230075461551,0.00012361104146491,-0.00725675733247359,-0.708898387883613,-9.82887869701288,0.559263117449625,-0.55202330405371,-20.8874168261394,0.070424932761699,0.00756860013206306,-0.115368500964981,0.0180472909643731,0.0811567314457818,-0.00467218042285559,0.113430748845103,0.0971406706377757,-0.000603879413653474,-0.000349060602343944,0.749416313409503,0.0684029324692743,0.817819245878777
111.779999999906,40720,0.0461678987278539,1.95945997093826E-07,6.46072015288839,5.5668,1412,1565,1474,1521,0.0115093346873619,-0.0117534130882905,0.000491153729923921,0.000341717677396436,-0.709596361637265,-9.73004767513191,0.560067411363921,-0.547978200139018,-20.8876611853976,0.0703759308251068,0.00668807632504853,-0.115419295427826,0.0141938281454663,0.0805540476214433,-0.00429748041646512,0.11273957278067,0.0971406706377757,-0.000805630032828866,-1.87069230794812E-09,0.743817480503029,0.0682681180023711,0.8120855985054
111.829999999906,40740,0.0577193988018164,-0.0200016683530042,6.48051477479261,5.4889,1412,1564,1474,1522,0.017257041212045,0.00392460798548747,-9.89593982463028E-05,-0.0102129582138093,-0.701027870469186,-9.79264457091617,0.560689694607429,-0.543963087027216,-20.8878523780849,0.0710983179517988,0.00647436317271629,-0.115402963498527,0.0106876188043986,0.0802660825435879,-0.00359024142752354,0.113084988932899,0.0957813156377756,-0.00100720370911953,0.000349030661325274,0.744280686506288,0.067089849075873,0.81137053558216
111.879999999906,40760,0.0346058942709946,-0.0200033588501509,6.50032909967573,5.5668,1412,1564,1473,1521,0.00244334546017398,0.0234050588414628,-8.9635784342595E-05,-0.00345653930738574,-0.70635390454138,-9.83075541188486,0.561136087613506,-0.539955766251741,-20.8880565670819,0.0717046445145968,0.00722674690456194,-0.115344308956046,0.00714970866084416,0.0801900491007041,-0.00515148035617211,0.113430748902109,0.0971406706377757,-0.000603873055056669,0.000349060160500485,0.748637808448668,0.0682669871770398,0.816904795625708
111.929999999906,40780,0.0230558594939359,-1.98917799249327E-07,6.48053276646056,5.5668,1412,1565,1473,1521,-0.0238987862716204,0.0161420296602637,-0.000184607220379539,0.000473779144095951,-0.708819218206084,-9.77292974681749,0.561394642121804,-0.535943367499688,-20.8883412947501,0.071171885719727,0.00833323096786699,-0.115275939361077,0.00313838412722299,0.0802350942762022,-0.00560689791207494,0.113085302887505,0.0971406706377757,-0.000402324948196986,5.01968096120464E-09,0.746175277227061,0.0682649054996777,0.814440182726739
111.979999999906,40800,0.0230558594939359,-1.98917799249327E-07,6.48053276646056,5.5668,1412,1565,1473,1521,-0.02892860904658,0.00176497293937895,-7.74070773131074E-06,-0.0039874341528057,-0.710697229055362,-9.77704309160778,0.56144260013462,-0.531938359871125,-20.8886160582337,0.0698038224474019,0.00877057492783283,-0.115249715116524,-0.00128623849582171,0.0798529372855955,-0.00541510659912382,0.113085302887505,0.0971406706377757,-0.000402324948196986,5.01968096120464E-09,0.746206990589329,0.0682625663000682,0.814469556889397
112.029999999906,40820,0.0230558594939359,-1.98917799249327E-07,6.48053276646056,5.5668,1412,1565,1473,1521,-0.0202883941683177,-0.01760837438787,0.000162531964959029,-0.00313176242058226,-0.706188727882726,-9.77891708322159,0.561265680229052,-0.527970851482462,-20.8888848211076,0.0684526759574627,0.00834281744995362,-0.115275498160043,-0.00576147688568232,0.078750576103614,-0.00534601542101796,0.113085302887505,0.0971406706377757,-0.000402324948196986,5.01968096120464E-09,0.746271187607465,0.0682597312103397,0.814530918817805
112.079999999906,40840,0.0230558594939359,-1.98917799249327E-07,6.48053276646056,5.5668,1412,1565,1473,1521,-0.0034476519551182,-0.016461470695286,0.000321209951146857,0.00029298491896311,-0.709434814821932,-9.78038501165335,0.560870403223753,-0.524072238005891,-20.8891514820028,0.0679043345005776,0.00744691451476968,-0.115324225367667,-0.00996896207914583,0.0771284398089582,-0.00532462052674058,0.113085302887505,0.0971406706377757,-0.000402324948196986,5.01968096120464E-09,0.746200906917976,0.0682556453762951,0.814456552294272
112.129999999906,40860,0.0230558594939359,-1.98917799249327E-07,6.48053276646056,5.5668,1412,1565,1473,1521,0.00949695849076764,-0.0106230801787928,0.00023806637366493,-0.00349628390540194,-0.710245896697568,-9.78185596188968,0.560276600062416,-0.520257062422688,-20.8894173321362,0.0680751074385466,0.00671730738737523,-0.115364020354954,-0.0137386463412611,0.0754548850699981,-0.00531461955787214,0.113085302887505,0.0971406706377757,-0.000402324948196986,5.01968096120464E-09,0.746227657686678,0.0682524336930285,0.814480091379706
112.179999999906,40880,0.0346062586541806,-0.0200035616526924,6.50032909639806,5.5668,1412,1564,1473,1521,0.00689383414143306,0.00246897916051546,-0.000698450150822255,-0.00230809272961215,-0.706397734798891,-9.78176381900559,0.559502501622384,-0.516516728152832,-20.8896822056055,0.0685402565324945,0.00654584859529814,-0.115406325247835,-0.017217766942324,0.0740676784576815,-0.0052884573048571,0.113085302887505,0.0971406706377757,-0.000402324948196986,5.01968096120464E-09,0.746159180556884,0.0682505873054047,0.814409767862289
112.229999999906,40900,0.023055859494095,-1.98925375330578E-07,6.48053276647181,5.5668,1412,1565,1473,1521,-0.00222388811338748,0.00911717426152578,-0.00106593258649331,0.000348164866810108,-0.708455424824056,-9.77202745346265,0.558552125938751,-0.512846314090267,-20.8899880087873,0.0687236068400816,0.00689267329539232,-0.115428587486467,-0.020801627030789,0.0727428734172586,-0.00655844432676845,0.113085302887701,0.0971406706377757,-0.000402324948199776,5.01981314973143E-09,0.746075315823344,0.0682474508005705,0.814322766623914
112.279999999906,40920,0.023055859494095,-1.98925375330578E-07,6.48053276647181,5.5668,1412,1565,1473,1521,-0.0134819072922543,0.00721516952601995,-0.00107707306470697,-0.0030978451270796,-0.709452754335933,-9.77834025465534,0.557419146303938,-0.509243238723737,-20.8903067069273,0.0683165676259407,0.00732630012851387,-0.115452285478329,-0.0245705433195178,0.0713537330765516,-0.00626657594480992,0.113085302887701,0.0971406706377757,-0.000402324948199776,5.01981314973143E-09,0.746094796941636,0.0682434799875644,0.8143382769292
112.329999999906,40940,0.023055859494095,-1.98925375330578E-07,6.48053276647181,5.5668,1412,1565,1473,1521,-0.0158382338007508,-0.00393787898078807,-0.00111671682745593,-0.00255689193300691,-0.705720598932947,-9.77883366205399,0.556092768110931,-0.505716476117008,-20.8906173552458,0.0675051036559385,0.00741978340710833,-0.115500875622893,-0.0284960234007899,0.0696664005722107,-0.0061685006527955,0.113085302887701,0.0971406706377757,-0.000402324948199776,5.01981314973143E-09,0.746126558148395,0.0682395434742568,0.814366101622652
112.379999999906,40960,0.023055859494095,-1.98925375330578E-07,6.48053276647181,5.5668,1412,1565,1473,1521,-0.0126149150361691,-0.0087779199690597,-0.00118779152634508,0.000173331860252909,-0.708038460399323,-9.77945800275719,0.554568831297081,-0.502283346578265,-20.8909244627204,0.0667974599820637,0.00710577717530437,-0.115579505090768,-0.03243230437133,0.0675890684206876,-0.00612111376784914,0.113085302887701,0.0971406706377757,-0.000402324948199776,5.01981314973143E-09,0.746082938234511,0.068234680326238,0.814317618560749
112.427499999906,40980,0.023055859494095,-1.98925375330578E-07,6.48053276647181,5.5668,1412,1565,1473,1521,-0.00131483044669351,-0.0105981960888176,-0.00128410892139427,-0.00301652667349016,-0.708900869372568,-9.78075725129581,0.552853178574564,-0.498961368736483,-20.8912296463007,0.0664453956448449,0.00657253580460036,-0.115676817632022,-0.0361647262344016,0.0652562781713069,-0.00609037966268147,0.113085302887701,0.0971406706377757,-0.000402324948199776,5.01981314973143E-09,0.746087262337598,0.0682301881872253,0.814317450524824
112.479999999906,41000,0.023055859494095,-1.98925375330578E-07,6.48053276647181,5.5668,1412,1565,1473,1521,0.0015806850492374,-0.00635320733619329,-0.00144843266020655,-0.00205506778444333,-0.705599155834462,-9.78086124038932,0.550957056821685,-0.495759894216412,-20.8915337337754,0.0664593625574282,0.00616010297296712,-0.115772504132284,-0.0396409810577055,0.0628134331306485,-0.00607233671588612,0.113085302887701,0.0971406706377757,-0.000402324948199776,5.01981314973143E-09,0.746049157066048,0.0682250445511331,0.814274201617181
112.529999999906,41020,0.023055859494095,-1.98925375330578E-07,6.48053276647181,5.5668,1412,1565,1473,1521,0.00174029742726786,-0.000376548658758403,-0.00166757429604941,0.000191526356048403,-0.70735585390666,-9.78124801298699,0.548890766206195,-0.492679381294993,-20.8918371191418,0.0665876106073798,0.0060000817233358,-0.115860919272435,-0.0429886311373477,0.0604106190992488,-0.00606452469085877,0.113085302887701,0.0971406706377757,-0.000402324948199776,5.01981314973143E-09,0.746007108749176,0.0682200432746524,0.814227152023828
112.579999999906,41040,0.023055859494095,-1.98925375330578E-07,6.48053276647181,5.5668,1412,1565,1473,1521,-0.00335993219463593,0.00218356560224279,-0.00196216498987895,-0.00167153583582813,-0.708313281385169,-9.78164073334342,0.546542878392345,-0.489572198807219,-20.8921551746753,0.0665526106829573,0.00605958801975247,-0.115952194302623,-0.0464715569548995,0.0579523026185739,-0.00605495857138243,0.113085302887701,0.0971406706377757,-0.000402324948199776,5.01981314973143E-09,0.745982100856162,0.0682149128942062,0.814197013750368
112.632499999906,41060,0.023055859494095,-1.98925375330578E-07,6.48053276647181,5.5668,1412,1565,1473,1521,-0.00685029279438918,-0.00016146668216924,-0.00228787094210396,-0.00270000552422928,-0.705521333975281,-9.78098877376236,0.544135869939358,-0.486734540983,-20.8924578029814,0.0662641844231436,0.00612916843272085,-0.116053938331686,-0.049820136888925,0.0555430058594969,-0.00604860135947731,0.113085302887701,0.0971406706377757,-0.000402324948199776,5.01981314973143E-09,0.745966554393627,0.0682101350191036,0.814176689412731
112.679999999906,41080,0.023055859494095,-1.98925375330578E-07,6.48053276647181,5.5668,1412,1565,1473,1521,-0.00968538480214516,-0.00361155893414974,-0.00266046709352102,-3.36710817646635E-05,-0.705674041547946,-9.78083102515879,0.541559883004383,-0.484021281004854,-20.8927603055188,0.0658437937896589,0.00606565652710968,-0.116181922658257,-0.0532077362493772,0.0529519554282365,-0.00605256979101904,0.113085302887701,0.0971406706377757,-0.000402324948199776,5.01981314973143E-09,0.74593492239723,0.068204884085243,0.814139806482473
112.729999999906,41100,0.023055859494095,-1.98925375330578E-07,6.48053276647181,5.5668,1412,1565,1473,1521,-0.00528981795123387,-0.00550126653330334,-0.00306333912253064,-0.00159928142838586,-0.707587783550781,-9.78154516892774,0.538815845173012,-0.481441986574207,-20.8930629534984,0.0654747760090751,0.00581901815978109,-0.116341316940585,-0.0565432935629613,0.0501821204587493,-0.00605650042265296,0.113085302887701,0.0971406706377757,-0.000402324948199776,5.01981314973143E-09,0.745906751715622,0.0681997985740098,0.814106550289632
112.782499999906,41120,-5.02172809739307E-05,-3.3650268529884E-12,6.50033843223168,5.5668,1412,1565,1472,1521,-0.00456010467206935,-0.00640285531669593,-0.00380207096013244,0.00249482917425784,-0.705585895061993,-9.83317145561938,0.535908633561716,-0.479005140954718,-20.8933761848138,0.0652422717507404,0.00550936256339881,-0.116529149388204,-0.0596956943799985,0.0473019511686706,-0.0070809967448603,0.113430911755211,0.0971406706377757,8.76091525182465E-07,1.54862406791523E-09,0.748311705823724,0.0681951487203502,0.816506854544074
112.832499999906,41140,-0.0116023590017554,0.0200105999552941,6.48053336928364,5.5668,1412,1566,1472,1521,-0.0104053167332387,-0.0114706777369157,-0.00459092619394064,-0.000628295308168866,-0.704509592116634,-9.77222678542195,0.532850443991204,-0.476713190271451,-20.8937632937463,0.0648851972686491,0.00515028160311572,-0.116766934855463,-0.0625934404407807,0.0443324698658591,-0.00769900028242951,0.113085313406767,0.0971406706377757,0.000202460964552809,-0.000349183420654529,0.745772300885602,0.0681897919206522,0.813962092806254
112.879999999905,41160,0.0115019036330323,0.0200089036460781,6.46072941280628,5.5668,1412,1566,1473,1521,0.00212186924385298,-0.0142561816631592,-0.00442197766069825,0.00127934501463884,-0.702965134131407,-9.73811386104807,0.529650149076807,-0.474579394349839,-20.8940807237984,0.0646992236309652,0.00446428974956713,-0.117036824028152,-0.0653526175902958,0.0410063160723777,-0.00514534994102289,0.112739734366237,0.0971406706377757,-0.000200708418424205,-0.000349153820058729,0.743459457285954,0.068183023198016,0.81164248048397
112.932499999905,41180,0.0230558605895925,-2.05468049838051E-07,6.48053276759096,5.6447,1412,1565,1473,1520,0.00757132834786214,-0.00808744290660618,-0.003542669966111,-0.0020849071231967,-0.719624518370956,-9.78673857368141,0.526319699546913,-0.472612067598672,-20.8943385910235,0.064947572089137,0.00389565542804969,-0.117295641877262,-0.0678474908320149,0.037526365414542,-0.00537485273358265,0.11308530290723,0.0985000256377757,-0.000402324967316199,5.13398282580013E-09,0.747883464398667,0.0693507047583848,0.817234169157052
112.982499999905,41200,-0.0116023590017554,0.0200105999553004,6.48053336928364,5.6447,1412,1566,1472,1520,0.00140891078784119,-0.00278745440077428,-0.00266757590780056,-0.000566399872081923,-0.718299157219842,-9.77630192855363,0.522872609431002,-0.470815555441935,-20.8946735114841,0.0652034647496201,0.00369168460843423,-0.117487461912167,-0.0700440398319267,0.0341909735809854,-0.00756920743598493,0.113085313406767,0.0985000256377757,0.000202460964552809,-0.000349183420654637,0.747707413582355,0.069336658881009,0.817044072463365
113.032499999905,41220,0.0115019036330323,0.0200089036460781,6.46072941280628,5.6447,1412,1566,1473,1520,-0.00410445020875862,-0.00555773820056539,-0.00170504426822945,0.00174510875111612,-0.717908566181497,-9.72830784857211,0.519318638347803,-0.469188893996965,-20.8950381777531,0.0650516279752411,0.00349476761792591,-0.117613754812815,-0.0721298127392776,0.0308352829080863,-0.006554056409144,0.112739734366237,0.0985000256377757,-0.000200708418424205,-0.000349153820058729,0.745561170553261,0.0693865609195833,0.814947731472844
113.082499999905,41240,0.0115019036330323,0.0200089036460781,6.46072941280628,5.5668,1412,1566,1473,1521,-0.00059813948330113,-0.0112296098947306,-0.00113349689272571,-7.79516197134747E-06,-0.703583430947915,-9.74263779748514,0.515660633538653,-0.467733349889607,-20.895307508608,0.0648889794721677,0.00306218578428478,-0.117695289733017,-0.0741480332089143,0.0274997175201641,-0.00435018391210836,0.112739734366237,0.0971406706377757,-0.000200708418424205,-0.000349153820058729,0.743378410816741,0.0681480641945491,0.81152647501129
113.129999999905,41260,0.0115019036330323,0.0200089036460781,6.46072941280628,5.5668,1412,1566,1473,1521,0.00245766482416637,-0.0102632157211818,9.99882005701465E-05,-0.00135315911726056,-0.691828479491142,-9.74837991514763,0.511908568154595,-0.466442505618784,-20.8954805416016,0.0649570031908202,0.00253145669704712,-0.117774215592255,-0.0759100555323428,0.0240111282006115,-0.00262372153723738,0.112739734366237,0.0971406706377757,-0.000200708418424205,-0.000349153820058729,0.741886908713149,0.0678287153394046,0.809715624052553
113.182499999905,41280,-0.0116027170958461,0.0200108044953789,6.48053336887207,5.5668,1412,1566,1472,1521,0.002999183701099,-0.00858949116845753,-0.000647571346270083,0.00359639862883007,-0.697859557434142,-9.80226533831862,0.508075376047958,-0.46531961072253,-20.8955775032003,0.0651734183605101,0.00204893473473567,-0.117818356103574,-0.0773226678473565,0.0209373628155683,-0.00180283268702122,0.113085313399586,0.0971406706377757,0.000202467213294717,-0.000349186989879017,0.745784678370972,0.0681342310600348,0.813918909431007
113.229999999905,41300,0.0115019036260923,0.0200089036424459,6.46072941281759,5.5668,1412,1566,1473,1521,0.00144661266835887,-0.0104383476992707,0.000323282236704487,-0.000108296835288586,-0.700988469591864,-9.74104355963231,0.504178543208892,-0.464354240413647,-20.895687356059,0.0652165202529095,0.00160298112227232,-0.117862433257674,-0.0785423324992987,0.0176097251121189,-0.00215647079972773,0.112739734366435,0.0971406706377757,-0.000200708418303129,-0.000349153819995339,0.742975134325683,0.0680648663556427,0.811040000681325
113.279999999905,41320,0.0115019036260923,0.0200089036424459,6.46072941281759,5.5668,1412,1566,1473,1521,0.00413655793590544,-0.00843999482346413,-0.000217422414449757,-0.00145836871062369,-0.69930161863741,-9.74868919505679,0.500225382843866,-0.46355075157652,-20.8957461456809,0.0653880867712795,0.00113711278846835,-0.11789045410498,-0.0795471484816923,0.0145553108926475,-0.000291815341046627,0.112739734366435,0.0971406706377757,-0.000200708418303129,-0.000349153819995339,0.743281447266604,0.0681204057587613,0.811401853025366
113.332499999905,41340,0.0115019036260923,0.0200089036424459,6.46072941281759,5.5668,1412,1566,1473,1521,0.00618237846067448,-0.0063031943178819,0.000399717280197959,0.00227951237323407,-0.698696258340204,-9.75346249157357,0.496226376237939,-0.462902599461164,-20.8957226943415,0.0656615707578222,0.000750414356306365,-0.117913373185527,-0.0803673965282714,0.0113737467166027,0.00119303506599454,0.112739734366435,0.0971406706377757,-0.000200708418303129,-0.000349153819995339,0.743235908294263,0.0681012988644685,0.811337207158732
113.382499999905,41360,-0.011602358742642,0.0200110141392426,6.4805333688248,5.6447,1412,1566,1472,1520,-0.00366471172823013,-0.00639195991594832,7.24501917326973E-05,0.00481832466138554,-0.721138101818025,-9.80621812963024,0.492194849039821,-0.462407647942243,-20.8956262853678,0.0656583601971169,0.000531973000659151,-0.117922719291228,-0.0808903642796768,0.00840769527973297,0.00170003663829742,0.113085313398761,0.0985000256377757,0.000202460960031292,-0.000349190648164445,0.748386444276761,0.0694142173354779,0.817800661612239
113.432499999905,41380,0.0115019036330323,0.0200089036388709,6.46072941280627,5.5668,1412,1566,1473,1521,-0.00736509189472727,-0.0133178542994372,-3.54068329869444E-05,-0.00165125783832277,-0.698158094984959,-9.74507624867922,0.48813998927243,-0.462066318854214,-20.8955640476733,0.0653530055891685,6.5582040789127E-05,-0.117931187456021,-0.0812717529963528,0.00537462296884417,0.00121412772497506,0.112739734366237,0.0971406706377757,-0.000200708418424205,-0.000349153819932942,0.743173657729339,0.0681014031516648,0.811275060881004
113.479999999905,41400,0.0115019036330323,0.0200089036388709,6.46072941280627,5.5668,1412,1566,1473,1521,0.0068467846571732,-0.0144591755771041,0.00023238244619884,0.0023703412518158,-0.698311299755175,-9.75188626932289,0.484068485725192,-0.461881466061227,-20.8954590278229,0.0653701117465171,-0.000691662189035776,-0.117966024916146,-0.081501430497648,0.00208690274827148,0.00289358630124425,0.112739734366237,0.0971406706377757,-0.000200708418424205,-0.000349153819932942,0.743204069131066,0.0680950057004142,0.811299074831481
113.532499999905,41420,0.0115022600535087,-0.0200087020780435,6.46072941274911,5.5668,1413,1565,1473,1521,0.00841732574481601,-0.00762370065399779,0.000753197339918495,0.000844892447428731,-0.697476940361922,-9.75937711895229,0.479995734241508,-0.461856177625255,-20.8952861427934,0.0657970036252508,-0.00128535326173828,-0.117991933261288,-0.0813513226834148,-0.00117459550642621,0.00381089575628751,0.11273973436524,0.0971406706377757,-0.000200714637961531,0.000349153399827202,0.742571750540655,0.0679509137553416,0.810522664295997
113.582499999905,41440,-0.0231526648524134,-2.05736202403245E-07,6.46073001404401,5.6447,1413,1566,1472,1520,-0.00134471768507339,0.00075975324250286,0.00108613478861685,0.000995781914515253,-0.718213876207085,-9.74907897933477,0.475937576411508,-0.46198988007514,-20.8950932459373,0.0661029361005761,-0.00134258719167832,-0.117976245389848,-0.0809566280405148,-0.00431163123732518,0.00397622712632562,0.112739744857836,0.0985000256377757,0.000404013801646797,5.13866207336733E-09,0.745130485478582,0.0692533596975618,0.814383845176144
113.632499999905,41460,-0.0116023587365162,0.0200110141356231,6.48053336882482,5.6447,1412,1566,1472,1520,-0.0121928520598943,-0.00549275504843666,8.68974787419714E-05,0.00406748347076379,-0.713876710335898,-9.80729841291774,0.471902718296799,-0.462274232181162,-20.8948735102566,0.0656995994989003,-0.00142013906154445,-0.117965605113825,-0.080452639593601,-0.00714705540469524,0.00409120650698017,0.113085313398761,0.0985000256377757,0.000202460959924382,-0.000349190648101288,0.748218422828805,0.0693836695734229,0.817602092402228
113.679999999905,41480,0.0115019036330323,0.0200089036388709,6.46072941280627,5.6447,1412,1566,1473,1520,-0.00466407267658923,-0.0193824160667512,2.66648266373105E-05,-0.000314747350809837,-0.724095902413429,-9.74379852890995,0.467892207119605,-0.462711916339962,-20.8946808644807,0.0651522407507829,-0.00206062558109886,-0.117995493403167,-0.0799437848236017,-0.01035849701184,0.00431784217534693,0.112739734366237,0.0985000256377757,-0.000200708418424205,-0.000349153819932942,0.746567802688956,0.0695483012220239,0.816116103910979
113.732499999905,41500,0.0115019036330323,0.0200089036388709,6.46072941280627,5.5668,1412,1566,1473,1521,0.00766839350045267,-0.0165568457464998,7.69015893569544E-05,-0.00166517005371116,-0.696516361037616,-9.75686667736625,0.463914285227738,-0.463319575944619,-20.8944291651152,0.0652714371962136,-0.00298270547790251,-0.118029988712986,-0.0790781175381154,-0.0137589058167589,0.00568189104876216,0.112739734366237,0.0971406706377757,-0.000200708418424205,-0.000349153819932942,0.743094353835064,0.0680650701684791,0.811159424003543
113.779999999905,41520,0.0115022600535087,-0.0200087020780435,6.46072941274911,5.5668,1413,1565,1473,1521,0.0172228647466149,-0.00786808112275865,0.00043342998239863,-0.00145218935466095,-0.701500908386212,-9.75810983877129,0.459990550093649,-0.46409162190765,-20.8941268785668,0.0659088548729138,-0.00365873928664751,-0.118063950462542,-0.0778148384294535,-0.0171155653545957,0.00627300040935811,0.11273973436524,0.0971406706377757,-0.000200714637961531,0.000349153399827202,0.742983658711408,0.0680317501010254,0.811015408812433
113.829999999905,41540,-0.0116027171028624,-0.0200108044918549,6.48053336888332,5.6447,1413,1565,1472,1520,0.00407338885802722,0.00981639645029694,0.000756327266696271,0.00535483449743992,-0.715268739612451,-9.81381280977513,0.456136625065972,-0.465024499580801,-20.8937935903745,0.0665442391467385,-0.00355583904449178,-0.118048939774141,-0.0763261699585159,-0.0203052295098504,0.00638175421735605,0.113085313399782,0.0985000256377757,0.000202467213417126,0.000349190086948221,0.747467381745232,0.0692225587839888,0.816689940529221
113.879999999905,41560,-0.0116023587365162,0.0200110141356231,6.48053336882482,5.6447,1412,1566,1472,1520,-0.0169887365538178,0.000717282195107919,0.000674012037136081,-0.00157525960442102,-0.711714274283948,-9.81642960938699,0.452358173929427,-0.46610654404177,-20.893465232148,0.0661900744695689,-0.00319350144236291,-0.118015079013889,-0.0748707916103624,-0.0231777780494767,0.00705196677333003,0.113085313398761,0.0985000256377757,0.000202460959924382,-0.000349190648101288,0.74753920005704,0.0692206776464496,0.81675987770349
113.932499999905,41580,-0.0116023587365162,0.0200110141356231,6.48053336882482,5.6447,1412,1566,1472,1520,-0.0164150794803246,-0.0128134676605734,0.000660193435420624,0.00414623355750384,-0.708824101658615,-9.80209868378948,0.448648732210562,-0.467337957038018,-20.8931459912786,0.0653298161291654,-0.00352075420810294,-0.118024088841187,-0.073487335503954,-0.0263066699532288,0.00579552243632353,0.113085313398761,0.0985000256377757,0.000202460959924382,-0.000349190648101288,0.747347013472103,0.0692103834233244,0.816557396895427
113.982499999904,41600,0.0115019036330323,0.0200089036388709,6.46072941280627,5.6447,1412,1566,1473,1520,-0.000249456997586533,-0.026248494823303,0.000194965239744655,-0.00053201865539329,-0.715922082119318,-9.7487657399507,0.445013037357166,-0.468735903214145,-20.8928604453871,0.0647964158988236,-0.00454520442351599,-0.118081578409786,-0.0719051557547297,-0.0297667327589538,0.0062793516567734,0.112739734366237,0.0985000256377757,-0.000200708418424205,-0.000349153819932942,0.745246861281912,0.0692651195542371,0.814511980836149
114.029999999904,41620,0.0230558605895925,-2.05468049838051E-07,6.48053276759096,5.5668,1412,1565,1473,1521,0.0167064181245289,-0.0163706590630336,-3.97158693380854E-05,-0.000592096100852736,-0.697188138673372,-9.81593394771422,0.44146802596853,-0.470318883763296,-20.8925149578686,0.0652920511144186,-0.00565966077450108,-0.11812644447623,-0.0697776598642767,-0.0333336931322646,0.007369688306884,0.11308530290723,0.0971406706377757,-0.000402324967316199,5.13398282580013E-09,0.745405392297039,0.0680291376561708,0.81343452995321
114.082499999904,41640,0.0230558605895925,-2.05468049838051E-07,6.48053276759096,5.5668,1412,1565,1473,1521,0.024010956154127,-0.00123408705986845,-0.00020582979277641,0.00012614557096878,-0.698688891843235,-9.80219986312323,0.438039960839372,-0.47207257492343,-20.8921826916153,0.0663722657514376,-0.00612868594786804,-0.118147065787281,-0.0672795451307367,-0.0366206603592775,0.00602387307263022,0.11308530290723,0.0971406706377757,-0.000402324967316199,5.13398282580013E-09,0.745281074013071,0.0680217487190142,0.813302822732085
114.132499999904,41660,-0.0116023590017554,-0.0200105999553004,6.48053336928364,5.5668,1413,1565,1472,1521,0.0059816115054194,0.014584940481456,-0.000123117156292119,0.00482326163386306,-0.697445882430953,-9.79843048678578,0.434742020265575,-0.473976638343816,-20.891924328387,0.0672417872579735,-0.00574863438042307,-0.118123226518374,-0.064617328945544,-0.0394464946995115,0.00404448648733296,0.113085313406767,0.0971406706377757,0.000202460964552809,0.000349186517785324,0.744839648702489,0.0679566151389143,0.812796263841403
114.179999999904,41680,-0.0116018397747978,0.0200108093639303,6.48053408817959,5.6447,1412,1566,1472,1520,-0.0166626536571455,0.00446222148050063,0.000384225941218106,-0.00183455405624377,-0.709811191233106,-9.79656484470691,0.431573830565908,-0.476013427343616,-20.8917357373879,0.0669550377775974,-0.00513008640020583,-0.118097293430161,-0.0621718883919252,-0.0421475646346103,0.00345426529092341,0.113085325951502,0.0985000256377757,0.000202451904042402,-0.000349187074835231,0.74716003772058,0.069180701943541,0.816340739664121
114.232499999904,41700,-0.0116018397747978,0.0200108093639303,6.48053408817959,5.6447,1412,1566,1472,1520,-0.0194179769053999,-0.00981698636046557,5.98533996865697E-05,0.00418075637844592,-0.707601062833283,-9.79591463526169,0.428522706295919,-0.47818691870217,-20.8915801919484,0.0660182182371364,-0.00527325721529758,-0.118111592924343,-0.0598639526379064,-0.0449844966591379,0.00276195992072796,0.113085325951502,0.0985000256377757,0.000202451904042402,-0.000349187074835231,0.747119513449235,0.0691779681107076,0.816297481559942
114.282499999904,41720,0.0115019036422114,0.0200089036425731,6.46072941279065,5.5668,1412,1566,1473,1521,-0.00343030184415641,-0.0270315064734199,-0.000410218659875632,-0.00136998420733511,-0.698160447747164,-9.74302156184321,0.42558948045454,-0.480519121169335,-20.8914470311343,0.0653042618247173,-0.0062394615714264,-0.118163189754993,-0.0574119277401623,-0.0482293061117149,0.0032086899995787,0.112739734365965,0.0971406706377757,-0.0002007084185844,-0.000349153819997556,0.742729976045258,0.0680018000030645,0.810731776048322
114.332499999904,41740,0.0115019036422114,0.0200089036425731,6.46072941279065,5.5668,1412,1566,1473,1521,0.0162600576047087,-0.0184990650350364,-0.000101378351526541,-0.00220609237854398,-0.692663459617801,-9.75678755761875,0.422789832309674,-0.483024184352128,-20.8912496216478,0.0657049414276455,-0.00742359779701476,-0.118231931200154,-0.0544529867885079,-0.0517704130929481,0.00460352084379684,0.112739734365965,0.0971406706377757,-0.0002007084185844,-0.000349153819997556,0.742748121747398,0.0679945449616731,0.810742666709071
114.382499999904,41760,0.0230558605895925,-2.05468049838051E-07,6.48053276759096,5.5668,1412,1565,1473,1521,0.0266122092675659,-0.00400589660278216,-9.88927688001151E-05,9.51300008816824E-05,-0.697478066255977,-9.80490760757863,0.420150866327812,-0.485698026559585,-20.8910146963926,0.0668022593669081,-0.00803881523188749,-0.118258226346595,-0.0510314364471759,-0.0549659183747622,0.00417847467579279,0.11308530290723,0.0971406706377757,-0.000402324967316199,5.13398282580013E-09,0.745152194146757,0.067985559629477,0.813137753776234
114.429999999904,41780,0.0230558605895925,-2.05468049838051E-07,6.48053276759096,5.5668,1412,1565,1473,1521,0.0145170894370105,0.0148329893905245,-6.82468346593069E-07,-0.00356797982517981,-0.693442992945206,-9.79930584636354,0.417688580628607,-0.488514391442631,-20.890832533185,0.0679026060768679,-0.00770254150649727,-0.118241256443564,-0.0474941664964916,-0.0576195929341579,0.00315323915245353,0.11308530290723,0.0971406706377757,-0.000402324967316199,5.13398282580013E-09,0.744349577883093,0.0678467447621022,0.812196322645196
114.482499999904,41800,-0.0116027171028433,0.0200108044918549,6.48053336888331,5.6447,1412,1566,1472,1520,-0.0063116640562695,0.0120168252160833,0.000662061708135055,-0.00215590668423825,-0.708086317915223,-9.79844798946836,0.415397995665691,-0.491452618624912,-20.890688725187,0.0681475950804564,-0.00690553935010219,-0.118188724979864,-0.0441716795003462,-0.059963260136346,0.00271230556802671,0.113085313399782,0.0985000256377757,0.000202467213416801,-0.000349186989817519,0.747020134552373,0.0691488613138567,0.81616899586623
114.529999999904,41820,0.0115019036260923,0.0200089036424459,6.46072941281759,5.6447,1412,1566,1473,1520,-0.017206641964861,0.00119816364077157,0.000298755236942676,0.00261281043155398,-0.708632263208909,-9.74780132107613,0.413267182238785,-0.494499410357087,-20.8905600533864,0.0674763747464306,-0.00655136324646284,-0.118174483263733,-0.0411380795284195,-0.062218884482427,0.00283085408314066,0.112739734366435,0.0985000256377757,-0.000200708418303129,-0.000349153819995339,0.744556744448375,0.0691448932518057,0.81370163770018
114.582499999904,41840,0.0115019036260923,0.0200089036424459,6.46072941281759,5.6447,1412,1566,1473,1520,-0.006824809153836,-0.0162138057372402,0.000353893553233101,-0.00214644793608848,-0.711999145255001,-9.75868133734367,0.411283551106832,-0.497671800013462,-20.890379716964,0.0667738240902424,-0.00697968148072306,-0.118202896831907,-0.0382099759679838,-0.0648585054363499,0.0042580106125859,0.112739734366435,0.0985000256377757,-0.000200708418303129,-0.000349153819995339,0.744717768851279,0.0691431277754289,0.813860896626708
114.632499999904,41860,0.0115019036260923,0.0200089036424459,6.46072941281759,5.6447,1412,1566,1473,1520,0.00582102188091649,-0.01572011872106,-0.000301465886056277,-0.00255911990613228,-0.709684926321649,-9.76089020784088,0.409453753086344,-0.500984201383918,-20.8901388827133,0.0667761006916415,-0.00780280956961941,-0.11825276838878,-0.0349095473975333,-0.0675963582819836,0.00535542707482586,0.112739734366435,0.0985000256377757,-0.000200708418303129,-0.000349153819995339,0.745338180916966,0.0692757744349629,0.814613955351929
114.679999999904,41880,0.0115019036260923,0.0200089036424459,6.46072941281759,5.5668,1412,1566,1473,1521,0.0187974654457397,-0.00948583302425239,-0.000122684047359828,0.00279932709975091,-0.692915143488112,-9.76128040963578,0.407796916291245,-0.504439727716783,-20.8898471946343,0.0674237327898063,-0.00848667081821491,-0.118281455318683,-0.0312589329656465,-0.070382560461778,0.00631348866071919,0.112739734366435,0.0971406706377757,-0.000200708418303129,-0.000349153819995339,0.742667492698222,0.0679633871217144,0.810630879819936
114.732499999904,41900,0.0115019036260923,0.0200089036424459,6.46072941281759,5.5668,1412,1566,1473,1521,0.0157090969554943,0.00173329746010158,0.000188734995184064,-0.00228197499771053,-0.694689721306225,-9.76363249179568,0.406331540672585,-0.508020160547896,-20.8895087526186,0.0683218645532043,-0.008654408541299,-0.118290337721898,-0.0273524544178005,-0.0727667128296757,0.00720880002523223,0.112739734366435,0.0971406706377757,-0.000200708418303129,-0.000349153819995339,0.742343177744053,0.0678984443293655,0.810241622073419
114.779999999904,41920,0.0115019036260923,0.0200089036424459,6.46072941281759,5.6447,1412,1566,1473,1520,0.00799958474126596,0.00685964964446169,0.000445066945578357,-0.00316200677606002,-0.704816630704546,-9.76511420864559,0.405063979851379,-0.511705853334513,-20.8891265198624,0.0689439053819197,-0.00840796599544035,-0.11828299594963,-0.02338710005164,-0.0747719959441145,0.00806081897841921,0.112739734366435,0.0985000256377757,-0.000200708418303129,-0.000349153819995339,0.744651993983384,0.0691255987976624,0.813777592781047
114.829999999904,41940,0.0115019036260923,0.0200089036424459,6.46072941281759,5.6447,1412,1566,1473,1520,-0.00167369346733155,0.00607485056030051,0.000249437190380685,0.0025350844997479,-0.707784640843896,-9.76586522264783,0.403989922094348,-0.515484010639722,-20.8887029757165,0.069100744539189,-0.00806514004661375,-0.118262885879139,-0.019602069345056,-0.076506057479545,0.00886640554944416,0.112739734366435,0.0985000256377757,-0.000200708418303129,-0.000349153819995339,0.744623031988016,0.0691239147547342,0.81374694674275
114.882499999904,41960,0.0115019036260923,0.0200089036424459,6.46072941281759,5.6447,1412,1566,1473,1520,-0.00303769535504074,-0.00167017077553261,0.000240198656627869,-0.00306259213195849,-0.711275954615046,-9.76751266111576,0.403102244580694,-0.519350126334504,-20.8882400927173,0.0689249445408152,-0.00795838209636154,-0.118250950249979,-0.0159446501326537,-0.078216941819173,0.00963696806470468,0.112739734366435,0.0985000256377757,-0.000200708418303129,-0.000349153819995339,0.744678848418332,0.0691257802558861,0.813804628674218
114.932499999904,41980,0.0115019036260923,0.0200089036424459,6.46072941281759,5.6447,1412,1566,1473,1520,-0.00213486506543962,-0.0062311116193016,1.12471555927727E-05,-0.00300780057653596,-0.704889447863192,-9.76760708837289,0.402397596755794,-0.523304938121972,-20.8877395904095,0.068785400174628,-0.00814534348529901,-0.118263390642692,-0.0122295252498177,-0.0800090939633521,0.0103798660018823,0.112739734366435,0.0985000256377757,-0.000200708418303129,-0.000349153819995339,0.744697635975266,0.0691302734059429,0.813827909381209
114.982499999904,42000,0.0230504587247013,0.0400124671786818,6.48052403349985,5.5668,1411,1566,1473,1521,0.0069399413219739,-0.00682513749437984,-0.00138329378962625,0.00399609703246727,-0.691072114017878,-9.81561219575414,0.401880187924799,-0.527349796684437,-20.8872054881387,0.0689147266708544,-0.00850947167322996,-0.118300502605791,-0.00839546960058783,-0.0816186462808816,0.0105900271695219,0.11308515049734,0.0971406706377757,-0.000402230704773844,-0.000698216003702648,0.745013289408646,0.0679505559109899,0.812963845319636
115.029999999904,42020,0.0115022592261192,0.0200091037665087,6.46072941117403,5.6447,1412,1566,1473,1520,0.0126758694135669,-0.00657246275085251,6.01659653904991E-05,-0.00305712674454343,-0.710647531501198,-9.75871102100465,0.401559289722874,-0.53147693717152,-20.8867157944263,0.0694278800428148,-0.00889519535376158,-0.118357919729422,-0.00441935762443955,-0.0834587402858995,0.0095126847252492,0.112739734337755,0.0985000256377757,-0.000200714623523581,-0.000349157312160225,0.744558655253963,0.0691137454875961,0.813672400741559
115.079999999903,42040,0.0115022592261192,0.0200091037665087,6.46072941117403,5.6447,1412,1566,1473,1520,0.0129250851658646,0.00258480828162593,0.000194505612751559,-0.0032521995282328,-0.703909072496849,-9.76373664750721,0.401443525585302,-0.535685898243996,-20.8862109700937,0.0701279438063823,-0.00898210956615066,-0.118374131631921,-0.000207672554059317,-0.084936198865248,0.0105838634134574,0.112739734337755,0.0985000256377757,-0.000200714623523581,-0.000349157312160225,0.744573936062447,0.0691123200754487,0.813686256137895
115.129999999903,42060,0.0230504587244532,0.0400124671711503,6.48052403348879,5.6447,1411,1566,1473,1520,0.00778443708946052,0.00563738661405146,-0.000568711194477711,0.00372722427333574,-0.706442424381034,-9.81870861753897,0.401537005888342,-0.539958259860209,-20.8856699124695,0.0706332536698275,-0.00875595352994114,-0.118367249867682,0.00394527400720056,-0.0859069796555949,0.0104648433754557,0.113085150497147,0.0985000256377757,-0.000402230704769536,-0.000698216003571219,0.747138342533723,0.0691396996912846,0.816278042225007
115.182499999903,42080,0.0230504587244532,0.0400124671711503,6.48052403348879,5.5668,1411,1566,1473,1521,0.00670052966366705,0.00176211615734903,-0.000370940530830904,-0.00652184825750718,-0.693835768500384,-9.8065905526383,0.401836139390793,-0.544275932262422,-20.8851864483757,0.0709588085879053,-0.00857795593978938,-0.118360846837125,0.00798289842144431,-0.0866628304616519,0.0089854750730833,0.113085150497147,0.0971406706377757,-0.000402230704769536,-0.000698216003571219,0.744628124798793,0.067880967097502,0.812509091896295
115.229999999903,42100,0.0230504587244532,0.0400124671711503,6.48052403348879,5.6447,1411,1566,1473,1520,0.00587873159092104,6.70859356172817E-05,6.16822669874609E-05,-0.00533678118005965,-0.699378364503706,-9.80290217674123,0.402336737609435,-0.548626231584744,-20.8847664715351,0.0712750571193034,-0.00851693977609092,-0.118378148332377,0.0120356025452673,-0.0873884111310323,0.00783610896263783,0.113085150497147,0.0985000256377757,-0.000402230704769536,-0.000698216003571219,0.746908237966304,0.0691100630530926,0.816018301019397
115.279999999903,42120,0.0230504587244532,0.0400124671711503,6.48052403348879,5.6447,1411,1566,1473,1520,0.00978269381736887,-4.31119021267715E-05,-0.000300478185970412,0.00349917883097706,-0.706079016840383,-9.80079944200663,0.403037905117653,-0.553003012746277,-20.8844006681178,0.0716783553210804,-0.00854024471264719,-0.118405869126239,0.016027575209063,-0.0878271061028198,0.00679786948103365,0.113085150497147,0.0985000256377757,-0.000402230704769536,-0.000698216003571219,0.746868786556717,0.0691109884231253,0.815979774979842
115.332499999903,42140,0.0230504587244532,0.0400124671711503,6.48052403348879,5.6447,1411,1566,1473,1520,0.0109673424196942,0.000136378537758011,-0.000272992500706785,-0.00684593712724263,-0.710487773537957,-9.8005842530386,0.403941028792509,-0.557400386162363,-20.8840851822223,0.0721788699261672,-0.00853906228627568,-0.118419471493037,0.0200635007066189,-0.0880325307782717,0.00582706899656662,0.113085150497147,0.0985000256377757,-0.000402230704769536,-0.000698216003571219,0.746912749685359,0.0691167514627047,0.816029501148064
115.382499999903,42160,0.0115018981936667,0.0200089036463389,6.46072941394977,5.5668,1412,1566,1473,1521,0.0123225111264708,0.0069609959191822,-4.12643062322735E-05,-0.00338037259228531,-0.688809405025743,-9.76995241910659,0.405043993029144,-0.561812007916072,-20.8837411189689,0.0727839426500098,-0.00838414384217759,-0.118394614462677,0.0240625789490671,-0.08821877124383,0.00852635676509373,0.112739734386191,0.0971406706377757,-0.000200708323507295,-0.00034915382006327,0.742613990591864,0.0679418050802768,0.81055579567214
115.429999999903,42180,0.023050458724644,0.0400124671787709,6.48052403349994,5.5668,1411,1566,1473,1521,0.00442955978607748,0.00626680104524954,-0.0010074209292082,0.00334940491149824,-0.69147250756023,-9.81118630083277,0.406346301269813,-0.566215737616415,-20.8833256558542,0.0731382702373777,-0.00802023678691095,-0.118378383026069,0.0280213409605219,-0.0877765155850157,0.00755924795514973,0.113085150497342,0.0971406706377757,-0.000402230704772853,-0.000698216003704198,0.7449401447943,0.0679443160407306,0.812884460835031
115.482499999903,42200,0.023050458724644,0.0400124671787709,6.48052403349994,5.6447,1411,1566,1473,1520,0.00473173935377405,0.000915315127200957,8.50492693524948E-05,-0.00740969113351093,-0.71050466165418,-9.80414338912989,0.407843100569744,-0.570597220087812,-20.8829806345498,0.0733224634790195,-0.00784784500502178,-0.118389302542394,0.0317964714882771,-0.0874823681058471,0.0062965623737302,0.113085150497342,0.0985000256377757,-0.000402230704772853,-0.000698216003704198,0.746940197055185,0.0691149544567851,0.81605515151197
115.532499999903,42220,0.0461621375670549,0.0400084795057454,6.46071142412082,5.6447,1411,1566,1474,1520,0.00745481114262033,0.000419769678340837,-0.00018407707547946,-0.0062632661116014,-0.697496936107179,-9.7479890577116,0.409528418850689,-0.574955065011985,-20.8826838352216,0.0736103495449129,-0.00781777718033956,-0.118410631388771,0.0355897624046644,-0.0869449648853104,0.00616945687105507,0.112739420463676,0.0985000256377757,-0.000805529500572937,-0.000698146418809917,0.744500319289114,0.069117923897635,0.813618243186749
115.582499999903,42240,0.0577193996391865,0.0200012672232798,6.48051477639702,5.6447,1411,1565,1474,1520,0.0184048579592401,0.00661814890177682,-0.00022210169242949,-0.00119360793407514,-0.713118195395036,-9.80399032472237,0.411396540136341,-0.579285725106013,-20.8823688257992,0.0742826918097406,-0.00769896651909124,-0.118410378667509,0.0391396974458627,-0.0862523891461842,0.00576892004769585,0.113084988960896,0.0985000256377757,-0.00100720372373162,-0.000349020564480887,0.746998371037085,0.0691258640213434,0.816124235058429
115.632499999903,42260,0.0346058942709946,0.0200033588435417,6.50032909967575,5.6447,1411,1565,1473,1520,0.00924063056273937,0.0154123059943742,-0.00093320146332081,-0.00969882547387405,-0.714246402102311,-9.84142399813582,0.413445495834853,-0.583571173149753,-20.8821475206003,0.0749940466000773,-0.00709823521092095,-0.11837853673563,0.04275887458358,-0.0849735078768832,0.00278972485005556,0.11343074890211,0.0985000256377757,-0.000603873055056669,-0.000349057063254457,0.749930579627471,0.0692621931666173,0.819192772794088
115.679999999903,42280,0.0230504593043128,0.0400120627992638,6.48052403555436,5.6447,1411,1566,1473,1520,-0.00252666866488896,0.00969095291604639,0.000108825997300432,-0.00561288524677505,-0.699614615050262,-9.79202869471584,0.415666828744007,-0.587792131526617,-20.882045763136,0.0751687913163539,-0.00639912563324592,-0.118348605322575,0.0460750217648251,-0.0838147019494088,0.00177742778541765,0.113085150533191,0.0985000256377757,-0.000402230714888088,-0.000698208947281789,0.746888994807892,0.0691253610687408,0.816014355876633
115.729999999903,42300,0.0230504593043128,0.0400120627992638,6.48052403555436,5.6447,1411,1566,1473,1520,-0.00329900926626862,0.00283708725817682,0.000110152245902926,0.00283094922173207,-0.707718180428362,-9.79506066693441,0.418046416054475,-0.591944628489696,-20.8819712479049,0.0750116184648662,-0.0060988804636477,-0.118336335717969,0.0490948298613406,-0.0824435774742047,0.00116811109389263,0.113085150533191,0.0985000256377757,-0.000402230714888088,-0.000698208947281789,0.746881704176519,0.0691285987429445,0.816010302919464
115.782499999903,42320,0.0461621375670358,0.0400084795126154,6.46071142412078,5.6447,1411,1566,1474,1520,0.00761206398534164,-0.00468260734684037,2.41819744637646E-06,-0.0127586412057223,-0.711394612668977,-9.7516450627305,0.420575308850316,-0.59603114849235,-20.8819026352393,0.0750456545442906,-0.00618002103274001,-0.118342359346526,0.0519990472560999,-0.0810364076799458,0.00212531879075837,0.112739420463675,0.0985000256377757,-0.000805529500572596,-0.0006981464189298,0.744757464026322,0.0691600584591291,0.813917522485451
115.829999999903,42340,0.0577193996391865,0.0200012672232798,6.48051477639702,5.6447,1411,1565,1474,1520,0.0184076938052509,0.00616796018265486,-0.000557190084149318,-0.00495277894218162,-0.702549465372543,-9.79781624731518,0.423249186378938,-0.600047968950813,-20.8817979587583,0.0757359642844219,-0.00618962306122746,-0.118348780030345,0.0549843637274793,-0.0794966452215795,0.00159833534701412,0.113084988960896,0.0985000256377757,-0.00100720372373162,-0.000349020564480887,0.747282735313382,0.0691997627152224,0.816482498028604
115.882499999903,42360,0.034605894271001,0.0200033588435417,6.50032909967576,5.5668,1411,1565,1473,1521,0.011759571013568,0.0141622106449803,-0.000644000027944932,9.55773153184791E-05,-0.69546301549018,-9.8366161840233,0.426070614826165,-0.603979073097237,-20.8817854772362,0.0765341037483068,-0.00568140066519605,-0.118320122471395,0.0578829584395725,-0.0775813305781637,-0.00130223134535367,0.11343074890211,0.0971406706377757,-0.000603873055056793,-0.000349057063254457,0.74701235082753,0.0679123177278392,0.814924668555369
115.932499999903,42380,0.0230504593043065,0.0400120627992448,6.48052403555436,5.6447,1411,1566,1473,1520,0.00173866499495388,0.0166653470490669,-0.000103305854389193,-0.00816165577340586,-0.711580172778022,-9.77837143325936,0.429033487112355,-0.607804334984984,-20.8819170032751,0.0768685634352238,-0.00487631223159174,-0.118284396975567,0.0605254930049538,-0.0754535404710894,-0.00366283236150191,0.113085150533191,0.0985000256377757,-0.000402230714887964,-0.000698208947281479,0.746829363593705,0.0691460266044224,0.815975390198127
115.982499999903,42400,0.0230504593043065,0.0400120627992448,6.48052403555436,5.6447,1411,1566,1473,1520,-0.00886050294915223,0.0044393929399174,-0.000302792220580394,-0.00541698309720258,-0.700868118405002,-9.78653538371303,0.43212036208806,-0.611519408341966,-20.8820994173441,0.0766199607879737,-0.00431098182807242,-0.118256192942837,0.062910904454508,-0.0731594312660709,-0.00370999752749257,0.113085150533191,0.0985000256377757,-0.000402230714887964,-0.000698208947281479,0.746988514671373,0.0691564414007756,0.816144956072149
116.029999999903,42420,0.0461621375670358,0.0400084795126154,6.46071142412078,5.6447,1411,1566,1474,1520,0.00460053526578238,-0.000953520726765826,-0.000561578448339443,0.000946465181305971,-0.719960964381885,-9.74844369959026,0.435315633411343,-0.6151249447628,-20.8822485663182,0.0765022304963473,-0.00427137596439142,-0.118260668380061,0.0649135844906834,-0.0710001083786432,-0.0020309059520754,0.112739420463675,0.0985000256377757,-0.000805529500572596,-0.0006981464189298,0.746139913000766,0.0694662706237357,0.815606183624502
116.082499999903,42440,0.0577193996391865,0.0200012672232798,6.48051477639702,5.5668,1411,1565,1474,1521,0.0132716879944547,-0.000575811888458702,-0.00083395673638736,-0.0151609656584683,-0.696528649242767,-9.80397005627015,0.438614170171012,-0.618622636200626,-20.8823154559959,0.0769298671586567,-0.0043448818121635,-0.118270057299382,0.0670202281157488,-0.0686286287003648,-0.00115349809329388,0.113084988960896,0.0971406706377757,-0.00100720372373162,-0.000349020564480887,0.745199223012138,0.0679944142014803,0.813193637213619
116.132499999903,42460,0.0346058942709946,0.0200033588435417,6.50032909967575,5.5668,1411,1565,1473,1521,0.0185514835112675,0.01341926537245,-0.000452175919271533,-0.00397859124912921,-0.689035427129643,-9.84234466061831,0.442015652227681,-0.622001295467708,-20.882404198178,0.0778328665739152,-0.00402203171834681,-0.118246278737719,0.0690985979740148,-0.0661759690916594,-0.00273688491736073,0.11343074890211,0.0971406706377757,-0.000603873055056669,-0.000349057063254457,0.747429375565103,0.0679873570131488,0.815416732578252
116.182499999902,42480,0.0230504593043128,0.0400120627992638,6.48052403555436,5.6447,1411,1566,1473,1520,0.00326092844055555,0.0190423781230722,-0.000125174076810584,-0.000248569545253336,-0.713743014863043,-9.82963289023406,0.445518674039331,-0.625235199256344,-20.8826151093829,0.0783785229427326,-0.00316711973052681,-0.118207632356382,0.0709508985693259,-0.0632733494391544,-0.00556564475453029,0.11343074890211,0.0985000256377757,-0.000603873055056669,-0.000349057063254457,0.749392389754945,0.0691732935139388,0.818565683268884
116.232499999902,42500,0.0461621375670358,0.0400084795126154,6.46071142412078,5.6447,1411,1566,1474,1520,-0.00320421278320314,0.00874865314717892,-0.000126391443421451,-0.0135877134891883,-0.713022937529312,-9.73569612476271,0.449107181348052,-0.628318709705949,-20.8828878226191,0.0782681947905372,-0.00244669193317789,-0.118159066436616,0.0724592619304245,-0.0600740026799256,-0.005001571548547,0.112739420463675,0.0985000256377757,-0.000805529500572596,-0.0006981464189298,0.744826582525894,0.0692066364968234,0.814033219022718
116.282499999902,42520,0.0461624987197959,0.0400086805414569,6.46071142040582,5.5668,1411,1566,1474,1521,-0.0036162098487985,0.00345224944344861,-0.000129326723979509,-0.00603581138877019,-0.685632350559843,-9.75602213928432,0.452759675245985,-0.631255110992489,-20.883060804951,0.0780959277043488,-0.00208879251152438,-0.11811182369181,0.0736704104239996,-0.0571270333505259,-0.00234053928956577,0.112739420398849,0.0971406706377757,-0.000805535802688245,-0.000698149926883085,0.742879592036994,0.0680165204007719,0.810896112437766
116.329999999902,42540,0.0461624987197959,0.0400086805414569,6.46071142040582,5.5668,1411,1566,1474,1521,0.00783699873937629,0.00103068380772809,0.000388347003633313,0.000555239092999819,-0.696711360546873,-9.75493790034965,0.456467604703654,-0.634035541338163,-20.8831428903929,0.0782174450690115,-0.00203141907311023,-0.118105713177397,0.0746585074608063,-0.0541633718806757,-0.000966548127314076,0.112739420398849,0.0971406706377757,-0.000805535802688245,-0.000698149926883085,0.742576591128992,0.0679611047949062,0.810537695923898
116.379999999902,42560,0.034605894271001,0.0200033588435417,6.50032909967576,5.5668,1411,1565,1473,1521,0.0107587053897151,0.00518384840908261,0.00021055765159505,-0.0103621485104972,-0.694600296708172,-9.85639346687793,0.460228921608126,-0.636660385314946,-20.883167122755,0.0787149438597359,-0.00192070585650301,-0.118089585962531,0.07576134342302,-0.0508408546057891,-0.000920862227445543,0.11343074890211,0.0971406706377757,-0.000603873055056793,-0.000349057063254457,0.747114432756176,0.0678921852492084,0.815006618005384
116.429999999902,42580,0.034605894271001,0.0200033588435417,6.50032909967576,5.6447,1411,1565,1473,1520,0.00724550729956602,0.0120251605564311,-0.000387750097619662,-0.00382796098479019,-0.706010211648958,-9.8324767942988,0.464044441255823,-0.639109277304325,-20.8832977022838,0.0792083475736037,-0.00146641135478536,-0.118085962985795,0.0768268097239649,-0.0472667632242936,-0.00408632026189956,0.11343074890211,0.0985000256377757,-0.000603873055056793,-0.000349057063254457,0.749612567865376,0.0692083090554404,0.818820876920817
116.482499999902,42600,0.0461621375670358,0.0400084795126154,6.46071142412078,5.5668,1411,1566,1474,1521,0.000707785262437131,0.00982846077506377,-0.000134656460950453,0.000449768884409812,-0.69929889039846,-9.73473606820669,0.467905160077012,-0.641386377833016,-20.8835095713697,0.0793283716365722,-0.000914519257757427,-0.118034296106037,0.0775538971427187,-0.0437000143538468,-0.00371335698990243,0.112739420463675,0.0971406706377757,-0.000805529500572596,-0.0006981464189298,0.742774323655282,0.0680430330372323,0.810817356692514
