t,frame,xb,xa,xc,xp,pwm1,pwm2,pwm3,pwm4,p,q,r,accx,accy,accz,x,y,z,roll,pitch,yaw,vx,vy,vz,theta1,theta2,b1s1,a1s1,pwr1,pwr2,pwrsum
171.872499999852,64740,0.0230504587244532,0.0400124671711757,6.48052403348879,5.6447,1411,1566,1473,1520,-0.00376833707031419,0.00141801999877764,0.000608985560092989,-0.00552311545715392,-0.698735075255022,-9.79942360266976,0.436026837898972,-0.606269330395092,-20.8033661544035,0.0735982881402198,-0.00791964569111431,-0.113219263614352,0.00698265492006857,-0.0923592476352788,-3.60379228471673E-05,0.113085150497147,0.0985000256377757,-0.000402230704769536,-0.000698216003571668,0.746827985389122,0.0690968368115586,0.815924822200681
171.922499999852,64760,0.0230504604097719,0.040012056238492,6.48052403668825,5.6447,1411,1566,1473,1520,0.00219717411395299,-0.00819000558326781,0.000595668730854031,0.0062754954871439,-0.701801827898754,-9.7550365615179,0.436472235620933,-0.610867247751151,-20.8033320602333,0.0735326075319562,-0.00812319223542754,-0.113229955093924,0.0108680294566827,-0.0917739360405643,0.00142625033531727,0.112739430882955,0.0985000256377757,-0.000200526951369989,-0.00104745987217716,0.744443600534377,0.0690991390119404,0.813542739546317
171.972499999852,64780,0.0230504604097719,0.040012056238492,6.48052403668825,5.6447,1411,1566,1473,1520,0.013443141145561,-0.0100148872001492,-4.48823411753004E-05,-0.00663197342496753,-0.710151934750525,-9.80064171594972,0.437117446325574,-0.615433461839087,-20.8032908802059,0.0738994468104101,-0.00860979392854006,-0.113265165076587,0.0149335672373689,-0.0909614734871593,0.00028026974466658,0.113085150552978,0.0985000256377757,-0.000402230734178345,-0.000698208832796342,0.746890063075298,0.0691048378649057,0.815994900940203
172.022499999852,64800,0.0230504604097719,0.040012056238492,6.48052403668825,5.6447,1411,1566,1473,1520,0.0202194995762241,-0.000350576740843563,0.000138326886087862,-0.00533580535393079,-0.699523777236099,-9.79474140426996,0.437971804751977,-0.619962979201349,-20.8032984446533,0.0748077536267038,-0.00888031725635975,-0.113279178899055,0.0192833030639616,-0.0900845296690495,-0.00054115242420649,0.113085150552978,0.0985000256377757,-0.000402230734178345,-0.000698208832796342,0.746879621595808,0.069118040737795,0.815997662333603
172.072499999852,64820,0.0230504604097719,0.040012056238492,6.48052403668825,5.6447,1411,1566,1473,1520,0.0174561613793743,0.0066061889680759,-0.000265619336165985,0.00347776247071826,-0.706812603079529,-9.79320941668235,0.43904405481942,-0.624433850943414,-20.8033434122619,0.0757744402815961,-0.00872470432101591,-0.113265807144718,0.0236352235994086,-0.0886629587502339,-0.00124169963530748,0.113085150552978,0.0985000256377757,-0.000402230734178345,-0.000698208832796342,0.746947554443905,0.0691381380324985,0.816085692476403
172.122499999852,64840,0.0230504604097719,0.040012056238492,6.48052403668825,5.5668,1411,1566,1473,1521,0.00993223720956779,0.0101608502820796,-0.000659697285817359,-0.00711736994731886,-0.695506246276244,-9.79354047265262,0.440333493091254,-0.628824296582819,-20.803421631672,0.076455938354855,-0.00827755288535714,-0.11323044452668,0.0278914134304501,-0.0867263970508232,-0.00186975327072503,0.113085150552978,0.0971406706377757,-0.000402230734178345,-0.000698208832796342,0.744793543578805,0.0679422847494498,0.812735828328255
172.169999999852,64860,0.0230504604097719,0.040012056238492,6.48052403668825,5.5668,1411,1566,1473,1521,0.00190474522877971,0.00656844912094196,7.64223785425146E-05,-0.00546986239955485,-0.680897271297129,-9.7927402163412,0.441830465729398,-0.633117641629731,-20.8035308074319,0.0767356087652974,-0.0078245154322712,-0.113192323449504,0.031977993585744,-0.0848095618106277,-0.00247627442862786,0.113085150552978,0.0971406706377757,-0.000402230734178345,-0.000698208832796342,0.744196865077964,0.0678112949241478,0.812008160002112
172.222499999852,64880,0.0230504604097719,0.040012056238492,6.48052403668825,5.5668,1411,1566,1473,1521,0.00178182503943959,0.00273625797843651,-0.000210324329986358,0.00310698016857418,-0.690643294675812,-9.7922962047251,0.443525335102751,-0.637303536884823,-20.8036687927871,0.0768262745229806,-0.00760579727028405,-0.113176568868367,0.0358286437746749,-0.0826316890695778,-0.00303962833227473,0.113085150552978,0.0971406706377757,-0.000402230734178345,-0.000698208832796342,0.744545538106404,0.0678946651155743,0.812440203221978
172.272499999851,64900,0.0230504604097719,0.040012056238492,6.48052403668825,5.6447,1411,1566,1473,1520,0.00563403638621823,-0.00282667859541144,0.000416885824388733,-0.00759121906324932,-0.711062376125071,-9.79243684303605,0.445413342597273,-0.641378974477975,-20.8038336534782,0.0769658485329679,-0.00762516121712405,-0.113187100475242,0.0396429753007054,-0.0804876482821947,-0.0035632003776625,0.113085150552978,0.0985000256377757,-0.000402230734178345,-0.000698208832796342,0.746923724194208,0.0691295677979758,0.816053291992184
172.322499999851,64920,0.0461621375670676,0.0400084795127362,6.46071142412074,5.5668,1411,1566,1474,1521,0.0102754437645282,-0.000569318084790195,0.000387971115689493,-0.0061938086413633,-0.675058466623238,-9.73933327351793,0.447493472664084,-0.645344664429786,-20.8040184911532,0.0773702784560844,-0.00771943502938981,-0.11318952494029,0.0435578209731585,-0.0782031588660329,-0.00330066555493007,0.112739420463675,0.0971406706377757,-0.000805529500573154,-0.000698146418931908,0.741005193984603,0.0676500916331126,0.808655285617716
172.372499999851,64940,0.0461621375670676,0.0400084795127362,6.46071142412074,5.5668,1411,1566,1474,1521,0.0195590773085911,0.00445751511345503,0.000529024071113315,0.00133587379054166,-0.691635592669274,-9.75142377089812,0.449764424378841,-0.649190077849285,-20.8041373128939,0.0781589078261829,-0.00766813543617599,-0.113174420677071,0.0472992738100436,-0.0756736036420974,-0.00158544621215466,0.112739420463675,0.0971406706377757,-0.000805529500573154,-0.000698146418931908,0.741958262553774,0.0678333947946584,0.809791657348432
172.422499999851,64960,0.0230500958988294,0.0400122631673388,6.48052403674992,5.6447,1411,1566,1473,1520,0.0135022804512097,0.0122297588724121,0.000197211682958466,-0.00757137446247155,-0.711751707713694,-9.80481389613022,0.452226309456519,-0.652891578598118,-20.8041969142612,0.0790425304547806,-0.00724219132998132,-0.113146111822298,0.0511146837878671,-0.0724795175562453,-0.00147988399158112,0.113085150554054,0.0985000256377757,-0.000402224373462401,-0.000698212443704729,0.747095848475719,0.0691503334847804,0.816246181960499
172.472499999851,64980,0.0230500958988294,0.0400122631673388,6.48052403674992,5.6447,1411,1566,1473,1520,0.00237032264280646,0.0104763300917639,-0.000188692256280349,-0.00532314044980253,-0.701233483744745,-9.79362579674216,0.454875881634121,-0.656427258270207,-20.8042925025757,0.0794252730027681,-0.00663217375802763,-0.113114643591076,0.0548177130970544,-0.0690046400558874,-0.00227647270223088,0.113085150554054,0.0985000256377757,-0.000402224373462401,-0.000698212443704729,0.747071041108386,0.0691592246014962,0.816230265709882
172.522499999851,65000,0.0230500958988294,0.0400122631673388,6.48052403674992,5.6447,1411,1566,1473,1520,-0.00210392206331411,0.00612004337697031,-0.000540585174490012,0.00255086173367915,-0.713192228297538,-9.79199081754337,0.457700447294587,-0.659790209640814,-20.8044212556726,0.0794251959914634,-0.00621669878242644,-0.113088170896569,0.0581645245966831,-0.0654580584505733,-0.0028469073369101,0.113085150554054,0.0985000256377757,-0.000402224373462401,-0.000698212443704729,0.747696618974898,0.0693037917801819,0.81700041075508
172.572499999851,65020,0.0461621375597969,0.0400084795090277,6.46071142413233,5.5668,1411,1566,1474,1521,0.00580979032671615,-0.000904237930681316,-2.27258333048358E-05,-0.0129147531107139,-0.69713978031865,-9.74849813175914,0.460688063127166,-0.662981550776555,-20.8045453833664,0.0794540135143664,-0.00611730426198832,-0.113071561330498,0.0612892153491233,-0.0620274669666489,-0.00160333890616776,0.112739420463877,0.0971406706377757,-0.000805529500446282,-0.000698146418867201,0.742766210912774,0.0680016472359373,0.810767858148711
172.622499999851,65040,0.0577193996391865,0.0200012672232798,6.48051477639702,5.5668,1411,1565,1474,1521,0.012555121959328,0.00510447012399561,0.000218901788937382,-0.00470719294518042,-0.687475904978926,-9.80128224474272,0.463830606487469,-0.665997514504041,-20.8045892188294,0.0799505044945893,-0.00605815161760862,-0.113058578878832,0.0644448659765151,-0.058523924154472,-0.000599802775849822,0.113084988960896,0.0971406706377757,-0.00100720372373162,-0.000349020564480887,0.745084756963145,0.0679847483063705,0.813069505269515
172.672499999851,65060,0.0230558594939487,1.98917799249327E-07,6.48053276646055,5.5668,1412,1565,1473,1521,0.0147158207159521,0.0130592824168587,0.000206625904550591,-0.0016144419893922,-0.697414319213742,-9.79428774378369,0.467126779050593,-0.668824770387562,-20.8046447713586,0.0806899997972521,-0.00561636459727149,-0.113021749071896,0.0673785299038835,-0.0546207434495878,-0.00153214030501603,0.113085302887505,0.0971406706377757,-0.000402324948197203,-1.92255024362709E-09,0.744536163975391,0.0678819868211766,0.812418150796568
172.722499999851,65080,0.0115022600536232,0.0200087020779989,6.46072941274926,5.6447,1412,1566,1473,1520,-0.00268978395388151,0.0208891729077885,0.000193404558738083,-0.00549327845257507,-0.713648790416393,-9.73949374445703,0.470570042263454,-0.671448352942824,-20.804730110309,0.0809981954046589,-0.00467132626266008,-0.112966829001794,0.0702232710448965,-0.0505123337466879,-0.00134502355027584,0.112739734365243,0.0985000256377757,-0.000200714637963546,-0.000349150302695725,0.744763278828082,0.0691985478305429,0.813961826658625
172.772499999851,65100,0.0230504587308525,0.0400124671751196,6.48052403349974,5.6447,1411,1566,1473,1520,-0.0155936221357568,0.00382352806559537,-0.000378210330263008,-0.00510915571605254,-0.705078789457591,-9.79442757673115,0.474143784941496,-0.673865929239501,-20.8047868124537,0.0804399436596395,-0.00400602596480275,-0.112918678200368,0.0726819689603491,-0.0461817297736556,-0.00145046756025513,0.113085150497338,0.0985000256377757,-0.000402230704881189,-0.000698216003640483,0.747605044292582,0.0692689590674137,0.816874003359995
172.822499999851,65120,0.0461621375670358,0.0400084795057581,6.46071142412084,5.5668,1411,1566,1474,1521,0.000273446687172876,-0.00471121017131064,-0.000239316927666266,0.000312961423290493,-0.699604906224413,-9.75044077032887,0.477829591706108,-0.67608010483464,-20.804839294115,0.0800098062362035,-0.00408614144219138,-0.112918582387141,0.0747568581189836,-0.0423008158859281,-0.000190989797113423,0.112739420463676,0.0971406706377757,-0.000805529500572596,-0.000698146418810119,0.742931656152303,0.0680466799649783,0.810978336117281
172.872499999851,65140,0.0577193996391865,0.0200012672232798,6.48051477639702,5.5668,1411,1565,1474,1521,0.0139533016446162,-0.00224636570543744,-0.000623097400173122,-0.0150739394121671,-0.698793530843474,-9.80162671733596,0.481622836901695,-0.678098459678273,-20.8048296114058,0.0803604713428427,-0.00433601472687983,-0.112943571893382,0.0769656975439853,-0.0382754222506898,-8.00598115695826E-05,0.113084988960896,0.0971406706377757,-0.00100720372373162,-0.000349020564480887,0.745491634264314,0.0680569315099255,0.81354856577424
172.922499999851,65160,0.0461678987215373,1.95949565676179E-07,6.46072015288867,5.5668,1412,1565,1474,1521,0.0199889341668173,0.015319983148818,-0.000509727984473347,-0.00231880064324658,-0.695184314209764,-9.74217023140274,0.485525981893472,-0.679916842786948,-20.8048508300411,0.081310114322744,-0.00405526602502411,-0.112921861989466,0.079204571251218,-0.0342008203150415,-0.000290088173631819,0.112739572780675,0.0971406706377757,-0.000805630032718639,-1.87075456627994E-09,0.742952298749485,0.068065318326006,0.811017617075491
172.972499999851,65180,0.0461678987215373,1.95949565676179E-07,6.46072015288867,5.5668,1412,1565,1474,1521,0.00251535165267543,0.0251879208792647,-0.000212419914392269,-0.00367193386400534,-0.706012132570692,-9.75029593597848,0.489535368091883,-0.681521946503638,-20.8048197487182,0.0818886785732807,-0.00299361822243316,-0.112826208203266,0.0811030123531396,-0.0297778756577839,0.00143988785772519,0.112739572780675,0.0971406706377757,-0.000805630032718639,-1.87075456627994E-09,0.743068136775652,0.0680735390347391,0.811141675810391
173.022499999851,65200,0.0230504587308525,0.0400124671751196,6.48052403349974,5.5668,1411,1566,1473,1521,-0.0147812538477109,0.0210512927773666,-6.10820340203421E-05,-0.00876602587317876,-0.700389565143785,-9.79497191274259,0.493630991768649,-0.682897169149856,-20.8047675052547,0.0815057873866201,-0.00175860665287903,-0.112715311807817,0.0825911221024966,-0.0250965969322711,0.000693444561957049,0.113085150497338,0.0971406706377757,-0.000402230704881189,-0.000698216003640483,0.74549705894735,0.0680813482371104,0.81357840718446
173.072499999851,65220,0.0230504587308525,0.0400124671751196,6.48052403349974,5.5668,1411,1566,1473,1521,-0.0249255729906305,-0.0036378129015104,-6.4660877565569E-05,-0.00476076902609712,-0.691036485043846,-9.7930657342668,0.497787616986411,-0.684039401129553,-20.8047494559598,0.0803776019783934,-0.00128957921470776,-0.112676165207084,0.0836454183284098,-0.02062203420933,6.21915970970411E-05,0.113085150497338,0.0971406706377757,-0.000402230704881189,-0.000698216003640483,0.745516991190753,0.0680854536782158,0.813602444868969
173.122499999851,65240,0.0461621375670358,0.0400084795057581,6.46071142412084,5.5668,1411,1566,1474,1521,0.00359505966588881,-0.0124753857195945,0.0005665726154335,-0.000240682853229594,-0.702177978119811,-9.75125017834856,0.501988412811434,-0.684972555218177,-20.8047033575637,0.0798616288941706,-0.00180218619963234,-0.112703356793742,0.0844386370692163,-0.0167811117830234,0.00180862502271026,0.112739420463676,0.0971406706377757,-0.000805529500572596,-0.000698146418810119,0.743179322508622,0.0680930605357496,0.811272383044371
173.169999999851,65260,0.0577193996391865,0.0200012672232798,6.48051477639702,5.6447,1411,1565,1474,1520,0.0188286342036932,-0.00347911467225908,0.000247687177555446,-0.014994348765648,-0.716389431845036,-9.79581736832005,0.506239428716788,-0.685707650972935,-20.8046308253123,0.0804457015809357,-0.00224401537984726,-0.11273820267659,0.0855817629058516,-0.0127108968609035,0.00102501976612592,0.113084988960896,0.0985000256377757,-0.00100720372373162,-0.000349020564480887,0.747833843822371,0.0693052697466691,0.81713911356904
173.222499999851,65280,0.0577193996391865,0.0200012672232798,6.48051477639702,5.5668,1411,1565,1474,1521,0.0237415410290548,0.0165433867497587,-0.000296898092213453,-0.00407160232955086,-0.693345151137824,-9.7899086060524,0.510548553048505,-0.686238455855448,-20.8045953105766,0.0816274319601635,-0.00192792966492563,-0.112696828119769,0.0868243380017956,-0.0082782068122296,0.000446160774132308,0.113084988960896,0.0971406706377757,-0.00100720372373162,-0.000349020564480887,0.74561563606342,0.0681184099693779,0.813734046032798
173.272499999851,65300,0.0461678987215373,1.95949565676179E-07,6.46072015288867,5.5668,1412,1565,1474,1521,0.00243425574859291,0.028440325032875,7.2931990236904E-05,-0.00409833560940569,-0.708583705421967,-9.74694737103471,0.514913215149211,-0.686538032524702,-20.8045290659797,0.0823140519732699,-0.000750091795397837,-0.112592308254656,0.0876766267594517,-0.00358416055257506,0.00223596957731396,0.112739572780675,0.0971406706377757,-0.000805630032718639,-1.87075456627994E-09,0.743296760414731,0.0681261338212102,0.811422894235941
173.322499999851,65320,0.0230554969142963,3.27597132190742E-12,6.48053276925418,5.6447,1412,1565,1473,1520,-0.0165908272886415,0.0264606672735697,6.959092702665E-05,-0.00790809990347516,-0.718917455662965,-9.80256951016791,0.519308710823154,-0.686590458183565,-20.8043917607192,0.081967113601295,0.000657480083636039,-0.112485934451819,0.0880137618205488,0.001407982801187,0.00257757034477009,0.113085302936253,0.0985000256377757,-0.000402318621182282,1.54850816853624E-09,0.748119825364876,0.0693664734540454,0.817486298818921
173.37249999985,65340,0.0346062586543269,0.0200035616603385,6.50032909640917,5.6447,1411,1565,1473,1520,-0.0303218139908038,0.00421055371782772,-0.000594814474985667,-0.00329231172107111,-0.719498831527787,-9.83626851998822,0.523703846818021,-0.686399802410564,-20.8043106665924,0.0806760849855219,0.00149663289484718,-0.112420571362292,0.0877474366615059,0.00623505843033653,0.000202300431594235,0.113430748845108,0.0985000256377757,-0.000603879413545819,-0.000349060602407567,0.751674769196824,0.0696211140893809,0.821295883286205
173.42249999985,65360,0.0577193996391102,0.0200012672309704,6.48051477638589,5.5668,1411,1565,1474,1521,-0.0106395792543303,-0.00968780042196765,0.00042561229051342,-0.000623676494933471,-0.704730373088107,-9.73579259741135,0.528075285968418,-0.685991914504836,-20.8043023179586,0.0795998393179557,0.00129573696648818,-0.112418956182338,0.0871141980948424,0.0101086104943707,0.000986391075454605,0.11273942043506,0.0971406706377757,-0.000805535812900502,-0.000698142974327428,0.743308251171006,0.0681508707613937,0.8114591219324
173.47249999985,65380,0.0577193996391102,0.0200012672309704,6.48051477638589,5.6447,1411,1565,1474,1520,0.00997272252394906,-0.010977504825574,0.000157565408331533,-0.0149451947491038,-0.721315807060551,-9.79209415437954,0.53242104560281,-0.68538732605322,-20.8042660560092,0.0795628385217872,0.000714563298279364,-0.112464015230416,0.0867155738411549,0.0139946223525562,0.000459161097302777,0.113084988960702,0.0985000256377757,-0.00100720372373029,-0.00034902056461509,0.748599645390547,0.0694665610726744,0.818066206463221
173.52249999985,65400,0.0461678987215373,1.95949565676179E-07,6.46072015288867,5.5668,1412,1565,1474,1521,0.0222792357965905,0.0082710099882848,0.000214206117835192,-0.00141967086089852,-0.700888995533879,-9.7321216163003,0.536750437949187,-0.684594913755838,-20.8042541677543,0.0804943582484347,0.000602946739390673,-0.112446225715374,0.0865380481575562,0.0179073842674679,0.000165248514449891,0.112739572780675,0.0971406706377757,-0.000805630032718639,-1.87075456627994E-09,0.743327634864065,0.0681678854914894,0.811495520355554
173.57249999985,65420,0.0461678987215373,1.95949565676179E-07,6.46072015288867,5.5668,1412,1565,1474,1521,0.00818790784929093,0.0226377016348858,0.000130940971986819,-0.00440011230049106,-0.710918254011504,-9.7461672998572,0.54107109388566,-0.683592462354206,-20.8041934299915,0.0812886416999414,0.00141696618101109,-0.112371592417386,0.0862145149925374,0.0222368126263037,0.00215140758702927,0.112739572780675,0.0971406706377757,-0.000805630032718639,-1.87075456627994E-09,0.743544436333898,0.0681760213386369,0.811720457672535
173.62249999985,65440,0.0230554969142899,3.27597132190742E-12,6.48053276925417,5.5668,1412,1565,1473,1521,-0.0129650170998681,0.0252896666446784,4.15370828546198E-05,-0.00753661606907454,-0.704068168265938,-9.79385627194956,0.545367671305729,-0.682365492818281,-20.8040731112201,0.0811779059640014,0.00267556556867704,-0.112260727468443,0.0855435314551032,0.0269052275748391,0.0020739357058037,0.113085302936253,0.0971406706377757,-0.000402318621182158,1.54850816853624E-09,0.745974145280218,0.0681837350733873,0.814157880353605
173.67249999985,65460,-0.0116023590017554,0.0200105999553068,6.48053336928366,5.5668,1412,1566,1472,1521,-0.0373335945733155,0.00348397787852827,0.00093243598784955,-0.00122306567839563,-0.70240277400095,-9.7889349290452,0.549615309600989,-0.680918243198037,-20.8039904518294,0.0798816698706049,0.00353669895677359,-0.112142429780033,0.0843635125199914,0.0311009615442368,0.00136330223959178,0.113085313406768,0.0971406706377757,0.000202460964552809,-0.000349183420654761,0.745986296412259,0.0681891528006937,0.814175449212953
173.72249999985,65480,-0.0462554933790646,0.0400309090266509,6.48051657855358,5.5668,1412,1567,1471,1521,-0.0350889397303398,-0.018904928901456,0.00164540688878877,0.00506049835247225,-0.697907354135508,-9.79220319640049,0.553800469290014,-0.67927462705392,-20.8039257234699,0.0781109731096655,0.00311920380114625,-0.112094638910387,0.0831487038917054,0.034616631158447,0.00117982982893441,0.113085020408528,0.0971406706377757,0.000807158159436865,-0.000698537813949702,0.745995941425175,0.0681940314446237,0.814189972869799
173.77249999985,65500,-0.0924465137644855,0.0400462073606911,6.46067976159763,5.5668,1413,1568,1470,1521,-0.0214264160770621,-0.0443958733844205,0.00299564074788279,0.0157875139438189,-0.70695187598186,-9.74969018022169,0.557937612837196,-0.677482366967551,-20.8038223121273,0.0765848283265997,0.00147865036731321,-0.112087704632915,0.0825187143926541,0.0370386613118458,0.00300060848387537,0.112738867952646,0.0971406706377757,0.00161319146516246,-0.000698804769878724,0.743735715117293,0.0681967835562981,0.811932498673591
173.82249999985,65520,-0.115528321196381,0.040049502754789,6.48045660003314,5.5668,1413,1568,1469,1521,-0.00799418836926901,-0.0486455886707588,0.00282805094435505,0.00157673518650433,-0.709570048130264,-9.80472038855931,0.562073567603149,-0.675574861291703,-20.8036512633591,0.0758895351526867,-0.000865874323861013,-0.112116335868667,0.0830746272775944,0.0392410329442353,0.00317495953846876,0.113083973783346,0.0971406706377757,0.00201596900484903,-0.000698862274505719,0.746140863936453,0.0682021798537478,0.814343043790201
173.86999999985,65540,-0.150147930399614,0.0200296209418267,6.48041320755991,5.5668,1414,1568,1468,1521,0.00919740686118004,-0.045135530087454,0.00333865250037372,0.00967801465079037,-0.691614083903623,-9.79106010258228,0.566267304111789,-0.673574418695822,-20.8035120876195,0.0759822656702551,-0.00327959543971806,-0.112132173499592,0.0849457232869682,0.0409262791372959,0.00230210121116492,0.113083216584688,0.0971406706377757,0.00262008118544544,-0.000349515336869536,0.7460993944732,0.0682056269210674,0.814305021394267
173.92249999985,65560,-0.184767706235961,0.0400680443680627,6.4803436754057,5.5668,1414,1569,1467,1521,-0.0017802265761505,-0.0348964933570806,0.00393628009474868,0.0352736374672112,-0.705737888911339,-9.79746551092744,0.570582980828522,-0.671486972008944,-20.8033807961253,0.0762120292135923,-0.00519145465419511,-0.112107586435496,0.0879048341920971,0.0424229989281929,0.00328277038583907,0.113082003248597,0.0971406706377757,0.0032241962737897,-0.000699185825657337,0.745650842674383,0.0680828182953713,0.813733660969754
173.97249999985,65580,-0.230922204001794,0.0400823697986946,6.46043604559593,5.5668,1415,1570,1466,1521,-0.0183311239687872,-0.0415555235183339,0.00495338637394701,0.00577794256205758,-0.71107289413757,-9.74756799434379,0.575079558226445,-0.66932069576098,-20.8032247594108,0.0756985760183077,-0.0070505854630102,-0.112049244272032,0.09198011495463,0.0439804421280814,0.00345767439721557,0.112734615108417,0.0971406706377757,0.00402959225980348,-0.000699435804421864,0.742198112857769,0.0679016936793585,0.810099806537127
174.02249999985,65600,-0.253972966377187,0.040086533969465,6.48017737836061,5.5668,1415,1570,1465,1521,-0.0318579558963182,-0.0539140763079276,0.00495123258104412,0.0183237979301166,-0.679579826183644,-9.8017111022454,0.579807787639522,-0.667099501641298,-20.8030058322633,0.0743947106922494,-0.00940569791364668,-0.111979573411328,0.0973928169637835,0.0448777052112245,0.00501300205328325,0.11307910136516,0.0971406706377757,0.0044318280632541,-0.000699508469201816,0.746345981680239,0.0682114803520918,0.814557462032331
174.07249999985,65620,-0.253988319987416,0.0801731792813902,6.48015204444382,5.5668,1414,1571,1465,1521,-0.0273582328343655,-0.0786388115726798,0.00503343082193295,0.0473361824617755,-0.710756438794399,-9.81424990613015,0.584831253856183,-0.664848489333102,-20.8027367297954,0.0727571524717435,-0.0127219537608485,-0.111976060971478,0.103886763620223,0.0448725261327737,0.00604162510460739,0.113078659288312,0.0971406706377757,0.00443209598375258,-0.00139902042989491,0.746649001225495,0.0682134028348207,0.814862404060316
174.12249999985,65640,-0.28856909103115,0.0601435981259044,6.48006356427962,5.5668,1415,1571,1464,1521,-0.0124008182335071,-0.086517801858287,0.00519265867916841,0.00572607833769428,-0.719586916317823,-9.7653629907553,0.59023186681467,-0.662614756114092,-20.8024094160196,0.0717555156285036,-0.0168973034814185,-0.112023079791631,0.112304828418997,0.0443314796627179,0.00718438883580013,0.112732790110632,0.0971406706377757,0.00463343540570173,-0.00104940512552866,0.743817951852432,0.0682149693431027,0.812032921195535
174.17249999985,65660,-0.28856909103115,0.0601435981259044,6.48006356427962,5.5668,1415,1571,1464,1521,0.00430263148101918,-0.0848728240741638,0.0048157837426532,0.0219695417186647,-0.6746172599463,-9.80059738020907,0.596109091785666,-0.660432297235404,-20.8020711921037,0.0715486010575993,-0.0212543673180907,-0.11208473769878,0.123206865708436,0.043067222870051,0.00646506180938873,0.113077115309447,0.0971406706377757,0.00503553043846574,-0.00104950423873169,0.746403355868481,0.0682173975443853,0.814620753412866
174.21999999985,65680,-0.28856909103115,0.0601435981259044,6.48006356427962,5.5668,1415,1571,1464,1521,0.00669099399055541,-0.0746627841674448,0.00446526721064915,0.0542944586903896,-0.711558159213026,-9.7987515543217,0.602571983598334,-0.658312726083111,-20.8017577026898,0.0718611463960015,-0.0252380207523807,-0.112138006666752,0.135738405153255,0.0415571308340856,0.00610033454847327,0.113077115309447,0.0971406706377757,0.00503553043846574,-0.00104950423873169,0.746584396038663,0.0682172014683236,0.814801597506987
174.27249999985,65700,-0.323143418784287,0.0401049716097193,6.47995728221375,5.5668,1416,1571,1463,1521,-0.000858892042170356,-0.0640110341206623,0.0041615650319413,0.00885821692676608,-0.72745838903109,-9.80531899591104,0.609720600866164,-0.656264915435524,-20.8014481109075,0.0721035409909726,-0.0287072400024226,-0.112172129037186,0.150326805505985,0.0403029153823359,0.00627445776418784,0.113075260687398,0.0971406706377757,0.00563885245775799,-0.000699830206024258,0.746077303110357,0.0682190724967462,0.814296375607103
174.32249999985,65720,-0.334695504025402,0.0601649918425895,6.46010308050959,5.5668,1416,1572,1463,1521,-0.0222306669954837,-0.0676288047609673,0.00422393795912897,0.0242872104887628,-0.671108006364355,-9.75017395420433,0.617641879552848,-0.654300368233551,-20.8011024743966,0.0714829065232434,-0.0319378143067718,-0.112197772873359,0.166839564804988,0.0383591272635933,0.00806248965820161,0.11272880486766,0.0971406706377757,0.00584043634521546,-0.00104987755908785,0.744030423826469,0.0682191376227427,0.812249561449212
174.37249999985,65740,-0.346185747979894,0.0802180233833536,6.49964731055528,5.5668,1415,1572,1462,1521,-0.0279830301469194,-0.0841976401910438,0.00377632143609084,0.0631582385384694,-0.712561307643247,-9.85379296792334,0.626419451818294,-0.652438837521518,-20.8007052573008,0.0701057421676258,-0.0357139049300713,-0.112262867621458,0.184685963390521,0.0358114726727631,0.00751753273673843,0.113418851681958,0.0971406706377757,0.00604094110222133,-0.00139980295947417,0.749184121452375,0.0682201444410999,0.817404265893475
174.42249999985,65760,-0.369275779666829,0.0802388389989657,6.45995406302147,5.5668,1416,1573,1462,1521,-0.0246679248639995,-0.0993508914516131,0.00356388000775784,0.00668464394995222,-0.723938752265307,-9.76656017700418,0.636148759953572,-0.650719571535529,-20.8003250676563,0.0687746504736816,-0.0402754292395851,-0.112401060428523,0.204623490613868,0.0327734672325439,0.00833899980681612,0.112726204512493,0.0971406706377757,0.00644386215515834,-0.00140016619196661,0.743699350811668,0.0682209589277995,0.811920309739468
174.472499999849,65780,-0.357742161103357,0.100285398040688,6.47978314323135,5.5668,1415,1573,1462,1521,0.00154104616245665,-0.106525098615136,0.0032466883573996,0.0281889766417321,-0.664939538026937,-9.80560189394753,0.646931958004579,-0.649184820157063,-20.7999050982011,0.068193734369539,-0.0455275155335933,-0.112590244954803,0.227227610834615,0.0287060825427006,0.00855006104707659,0.113072221962155,0.0971406706377757,0.00624260051122576,-0.00174997864724466,0.746508601430092,0.0682227719350152,0.814731373365107
174.522499999849,65800,-0.369275779666822,0.0802388389989466,6.45995406302148,5.5668,1416,1573,1462,1521,0.00885018927494264,-0.0958211528583356,0.00355551911946671,0.0655379062092612,-0.713125681893938,-9.76338464014457,0.658894765061522,-0.647860368998373,-20.7994200941107,0.0684930996046238,-0.050597557124787,-0.112768038955539,0.251805573772875,0.0240468717189828,0.0110079790234045,0.112726204512493,0.0971406706377757,0.00644386215515822,-0.00140016619196627,0.744469396221675,0.0682192400070415,0.812688636228716
174.572499999849,65820,-0.357721516509262,0.0601709534405579,6.4798165238817,5.5668,1416,1572,1462,1521,0.0107637031865326,-0.0795692335215596,0.00384999690361312,0.00739211775358772,-0.726118424790473,-9.84098190315509,0.672159051171289,-0.646764003934071,-20.7988030425284,0.0690836939823867,-0.055005218736027,-0.112885593622879,0.278920156911131,0.019809696744191,0.0134532357926635,0.113072804454504,0.0971406706377757,0.0062422402630588,-0.00104998158897239,0.746183210397393,0.068219373041554,0.814402583438947
174.622499999849,65840,-0.392293488457632,0.080246322953415,6.47965806437114,5.5668,1416,1573,1461,1521,-0.00836022102779093,-0.0737993698162359,0.00324741939564342,0.0275853407386052,-0.665559121736759,-9.80403460086469,0.686835674617015,-0.645889618809655,-20.7981487750662,0.0691839959785914,-0.0587881916743068,-0.112971638490603,0.308538831968574,0.0153089894751258,0.013247706430001,0.113070039336044,0.0971406706377757,0.00684552117355786,-0.00140029678697175,0.746485804448235,0.0682211022364424,0.814706906684678
174.672499999849,65860,-0.392293488457632,0.080246322953415,6.47965806437114,5.5668,1416,1573,1461,1521,-0.0194367138720435,-0.0794696316839865,0.00285594558013979,0.0662386530577738,-0.713185175815702,-9.80334639977187,0.70302370231028,-0.645240726830303,-20.7974734297815,0.0684517360383265,-0.0625867817900903,-0.113080863648461,0.33940181517502,0.0103620902032861,0.0138072125787496,0.113070039336044,0.0971406706377757,0.00684552117355786,-0.00140029678697175,0.746730472573132,0.0682218194107844,0.814952291983916
174.722499999849,65880,-0.392293488457632,0.080246322953415,6.47965806437114,5.5668,1416,1573,1461,1521,-0.0239410828023873,-0.0901816678421507,0.00248575137201318,0.00529933690786633,-0.723672062105432,-9.83591458255072,0.720814124025121,-0.644849450495897,-20.7967566956707,0.0673272911410736,-0.0668120518833471,-0.113235195341886,0.372327191413422,0.00514559684410003,0.0147752493904543,0.113070039336044,0.0971406706377757,0.00684552117355786,-0.00140029678697175,0.746093622132183,0.0682248690458066,0.814318491177989
174.769999999849,65900,-0.392293488457632,0.080246322953415,6.47965806437114,5.5668,1416,1573,1461,1521,-0.0123853153363258,-0.0952126568892046,0.00296516625151768,0.0249556477758788,-0.667981824468562,-9.81725482142205,0.740300559641946,-0.644758444918866,-20.7959919402393,0.0664135504656999,-0.0714979666766475,-0.113410217471953,0.407583947038484,-0.00141639008449455,0.0159643019347808,0.113070039336044,0.0971406706377757,0.00684552117355786,-0.00140029678697175,0.746391543112678,0.0682244635945184,0.814616006707196
174.822499999849,65920,-0.35774216110087,0.100285398049606,6.47978314324307,5.5668,1415,1573,1462,1521,0.00453116475963464,-0.0950560153234645,0.00276422936480312,0.0542049064330633,-0.713006726426825,-9.81332573076242,0.761589991656315,-0.644995754017201,-20.7951642958739,0.0662237171549788,-0.0762861663986764,-0.113584295634788,0.444479752278573,-0.00827996402687808,0.0170992210370815,0.113072221962359,0.0971406706377757,0.00624260051118237,-0.00174997864740028,0.746505325350984,0.0682265249915017,0.814731850342485
174.869999999849,65940,-0.323158647428596,0.0802095547020956,6.47993217156187,5.5668,1415,1572,1463,1521,0.0209205842048576,-0.0758355452022226,0.00298741652593347,0.00174269619185141,-0.718417223653249,-9.860907976421,0.784790009934832,-0.645576302154791,-20.7942441687173,0.0669511732300084,-0.0806484918185448,-0.113734671787378,0.483642315440296,-0.0149512014764036,0.0199927354762592,0.113074822506523,0.0971406706377757,0.00563911819760119,-0.00139965518098621,0.746188265631303,0.0682290838154093,0.814417349446712
174.919999999849,65960,-0.300124726042139,0.0802018865529336,6.46020933063446,5.5668,1415,1572,1464,1521,0.0215702946921692,-0.0562162996919824,0.00304825409796037,0.0177323768099642,-0.679925638543719,-9.76775368501748,0.809993985191852,-0.646497947444535,-20.7932089407425,0.0680010884488141,-0.0839516965193699,-0.113811231338839,0.524754393879948,-0.0217608334202955,0.022206702053796,0.112730658932339,0.0971406706377757,0.0052371762694075,-0.00139952137178334,0.743938154954746,0.0682324670442693,0.812170621999015
174.972499999849,65980,-0.265526712015919,0.0601376802653211,6.46033144548608,5.5668,1415,1571,1465,1521,0.00602313881272434,-0.032779204995969,0.00324161032277389,0.0321491922750252,-0.711859825622066,-9.74344451113488,0.837276135650997,-0.647745842638587,-20.7920466040774,0.0687572485227232,-0.0861151065131621,-0.113802335837199,0.56673598954808,-0.0282437415534054,0.0243951042263105,0.1127327898365,0.0971406706377757,0.00463344092464997,-0.0010494009720645,0.743742312176835,0.0682354771809943,0.81197778935783
175.019999999849,66000,-0.253988319993319,0.0801731792846217,6.48015204444206,5.5668,1414,1571,1465,1521,-0.00863726877577514,-0.0292152946227014,0.00328934999264341,-0.00152605435821485,-0.710306516787218,-9.84931465426038,0.866683417880535,-0.649311951198481,-20.7907664863531,0.0687026713329154,-0.0876097444155119,-0.113737330816966,0.609639399662435,-0.0343405905762941,0.02596021136453,0.113078659288282,0.0971406706377757,0.0044320959838556,-0.00139902042995131,0.746465641003462,0.0682428946371679,0.81470853564063
175.072499999849,66020,-0.219401866245858,0.100193189616203,6.48022269133267,5.5668,1413,1571,1466,1521,-0.0150596468059934,-0.0321546565135589,0.00356996361537425,0.0130692784724855,-0.687294560450535,-9.83759008345792,0.898246969113174,-0.651194955609221,-20.7894071820279,0.068053581248466,-0.0891226064316748,-0.11366780797007,0.65306314878917,-0.0409490080896673,0.0282488821369643,0.113079892076523,0.0971406706377757,0.00382856236596239,-0.00174836961023741,0.746502263514378,0.0682494677859508,0.814751731300329
175.122499999849,66040,-0.184783177931159,0.0801357199688884,6.48031813123264,5.5668,1413,1570,1467,1521,-0.00453492276170536,-0.0374353726142366,0.0037639398301526,0.00968223250836009,-0.711224503760635,-9.81431401129821,0.931995167968108,-0.653408327270639,-20.787970104271,0.0675105279291462,-0.0909529987675171,-0.113607654506212,0.696997062866034,-0.0477413993203535,0.0292016029070397,0.113081557502778,0.0971406706377757,0.00322446625487092,-0.00139836676489177,0.746263588746772,0.0682573841871469,0.814520972933919
175.172499999849,66060,-0.150180055166775,0.100147256085658,6.48036257666747,5.5668,1412,1570,1468,1521,0.00589144023630389,-0.0270842568401579,0.00383507288633666,-0.00820176367800229,-0.698853735516399,-9.86393451374768,0.967964443760209,-0.655969974724411,-20.786495030238,0.0675902591171424,-0.0925740684977164,-0.113526433092338,0.741862415831318,-0.0546686664220047,0.0295991362342903,0.113082333075615,0.0971406706377757,0.0026206417626324,-0.00174756807012938,0.746770029530353,0.0682661761996925,0.815036205730045
175.222499999849,66080,-0.150180055166775,0.100147256085658,6.48036257666747,5.5668,1412,1570,1468,1521,0.0154849690676328,-0.0170687062303846,0.00400720098985214,0.00692778694341623,-0.699146408482801,-9.84131787852255,1.00618686853113,-0.65887670084359,-20.7849991295503,0.0681630723681413,-0.0937355730622755,-0.11340861854837,0.787176206371192,-0.0615695293491374,0.0303127588452947,0.113082333075615,0.0971406706377757,0.0026206417626324,-0.00174756807012938,0.746647157414373,0.0682755678039216,0.814922725218294
175.269999999849,66100,-0.150180055166775,0.100147256085658,6.48036257666747,5.5668,1412,1570,1468,1521,0.00719178650646759,-0.00251437555870555,0.00418901253101462,-0.00118213500295494,-0.712582463195819,-9.78236368265788,1.04668911497751,-0.662116787854559,-20.7834871597519,0.068765320685771,-0.0941965003317485,-0.11323451830719,0.832904144714606,-0.0680389330355601,0.0303011975849004,0.113082333075615,0.0971406706377757,0.0026206417626324,-0.00174756807012938,0.746227360722926,0.0682855847276427,0.814512945450569
175.322499999849,66120,-0.127105870838774,0.100136980062039,6.46059325757727,5.5668,1412,1570,1469,1521,0.000411788785737077,0.00291579380956582,0.00504022369377433,-0.00876836181810692,-0.697612127245154,-9.81919541969212,1.08947640482138,-0.665681064110905,-20.7819237334512,0.068921993319009,-0.0941941163147759,-0.113004243508686,0.87856268760885,-0.074464615272046,0.0321254524808176,0.112737358457491,0.0971406706377757,0.0022179972461088,-0.00174738875351723,0.744766225068096,0.0682959472359305,0.813062172304027
175.372499999849,66140,-0.115570484801106,0.120148205739725,6.48038787652902,5.5668,1411,1570,1469,1521,-0.00769041301528101,0.00417838893593939,0.00590968242695299,0.00590392080182811,-0.704197914293506,-9.86467224729747,1.13453931178353,-0.669565623239662,-20.7802743032882,0.0687014702878279,-0.0940152282702497,-0.112713389411298,0.924018191039649,-0.0809336189807888,0.0333540087280635,0.113082774558199,0.0971406706377757,0.00201670475975148,-0.00209658464159286,0.747044117535639,0.0683064661613536,0.815350583696993
175.422499999849,66160,-0.0924889392976716,0.120136418053306,6.46061032219644,5.4889,1411,1570,1470,1522,-0.00359037141109483,-0.00332918269895153,0.00475096265035311,-0.0189044161039706,-0.689599939910794,-9.74529662309685,1.18188288817289,-0.673753605986083,-20.7786424000143,0.068306012441229,-0.094021638986941,-0.112472641556938,0.96951142115648,-0.0868396743120371,0.0328096575782442,0.112737656235096,0.0957813156377756,0.00161393179071655,-0.00209637894646483,0.740716293149109,0.0668647029591226,0.807580996108231
175.472499999849,66180,-0.0809557187216193,0.14014009976765,6.48039613575658,5.5668,1410,1570,1470,1521,0.00463962582222138,0.000574609411461021,0.00369058018282857,-0.0148474506122365,-0.68643636651958,-9.90234252546337,1.23149253551119,-0.678246819309713,-20.7769754932773,0.0683524552062431,-0.0940900486909071,-0.112291977774383,1.01496831684068,-0.0929555484009429,0.0330429008543997,0.11308291868172,0.0971406706377757,0.00141267709166444,-0.00244544319238015,0.747795653708776,0.0683426998124629,0.816138353521239
175.519999999848,66200,-0.0578665150732673,0.140126452886,6.46060971433785,5.411,1410,1570,1471,1523,0.0180150509009242,0.00697224158873786,0.00108704746518663,0.00224469880570288,-0.674825230046072,-9.83513980558704,1.28337336084256,-0.683037033539045,-20.7753609962102,0.068883568533308,-0.0939742639716279,-0.112150794685923,1.06023252798291,-0.0986097961747282,0.0320972676650647,0.112737645627963,0.0944219606377757,0.00100977048800069,-0.00244520505429535,0.74024387932996,0.0659200435167425,0.806163922846703
175.572499999848,66220,-0.0462979932533781,0.120091983699905,6.48044729346016,5.0994,1410,1569,1471,1527,0.0188874668085524,0.0250707118071458,-0.0195184533285183,-0.0313391290638039,-0.603374252357671,-9.77086572736095,1.33752718677458,-0.688018714555913,-20.7738041210455,0.069912316927369,-0.0931662901854021,-0.112518127281857,1.10577175472086,-0.100292508214527,0.0301590071072931,0.113083811383648,0.0889845406377757,0.000807899782243629,-0.00209560356699801,0.735184036354673,0.0618247455445232,0.797008781899196
175.619999999848,66240,-0.0578661658217865,0.140126237064608,6.46060972387717,5.3331,1410,1570,1471,1524,0.00855804139564607,0.0335204613423764,-0.0334792232658347,-0.0150864558671607,-0.606301514793566,-9.83626504961797,1.39393693645964,-0.693095554087349,-20.7722956719149,0.0707609649793352,-0.0915787791755611,-0.113775165458548,1.1505710824679,-0.10284303312119,0.0298464621295567,0.112737645794424,0.0930626056377758,0.00100976439356236,-0.00244520128821207,0.740667898635565,0.0652291057770103,0.805897004412575
175.669999999848,66260,-0.0809560647818842,0.140139884658887,6.48039613585271,5.411,1410,1570,1470,1523,-0.00836034281702855,0.0337608485451434,-0.0393237711597137,0.00261500970075235,-0.635320839026752,-9.8909629044409,1.4525548861561,-0.698325917124906,-20.7708063461426,0.0709348440452099,-0.0897170254624278,-0.115492531544659,1.19405993528221,-0.106578903967962,0.0294089402543695,0.113082918683398,0.0944219606377757,0.00141268313041606,-0.00244543943873222,0.744030090407412,0.0662416280255934,0.810271718433005
175.722499999848,66280,-0.0694261452758586,0.160137878025539,6.50017477794327,5.4889,1409,1570,1470,1522,-0.0139052353876368,0.0203795856648078,-0.0445999662097788,-0.034283437094636,-0.65353862580054,-9.83345420274796,1.51334505830473,-0.703742146904632,-20.7694614560974,0.0704267728387785,-0.0881637207536803,-0.117498908398469,1.23727563820358,-0.110120661983066,0.0241817300018457,0.113428055987878,0.0957813156377756,0.00121148603503592,-0.00279440442298031,0.749481292599685,0.0677099153334897,0.817191207933174
175.769999999848,66300,-0.0579091896103046,0.180161797383215,6.46054070807171,5.4889,1409,1571,1471,1522,-0.0113342122507098,0.00822078345324995,-0.0454570398125812,-0.0220760297972135,-0.606405395314916,-9.88117375275155,1.57627144679089,-0.709371017427215,-20.768368329655,0.0699548122675551,-0.0872512437421196,-0.119705490026612,1.27971376358243,-0.114968423006459,0.0202188465173005,0.112736441468619,0.0957813156377756,0.001010515158672,-0.00314382181577175,0.744605170228488,0.067440406335337,0.812045576563825
175.819999999848,66320,-0.0579091896103046,0.180161797383215,6.46054070807171,5.5668,1409,1571,1471,1521,0.0142222157627716,0.00746476500950488,-0.0439219017619085,-0.000178192966418966,-0.659139323608319,-9.89569467434901,1.64129056961431,-0.715246717159588,-20.7673783248845,0.0702569559868178,-0.0868056220124436,-0.121947915886435,1.3210667931542,-0.1203565046525,0.0192291853174254,0.112736441468619,0.0971406706377757,0.001010515158672,-0.00314382181577175,0.746212533130584,0.0686205693119449,0.814833102442529
175.872499999848,66340,-0.0579091896103046,0.180161797383215,6.46054070807171,5.4889,1409,1571,1471,1522,0.0213777413481947,0.0196487626964679,-0.0428180688761514,-0.0409541951248176,-0.647630474597045,-9.74516740246878,1.70838617483237,-0.721385230440129,-20.7665035290968,0.0713689640370694,-0.0859915460804126,-0.124053691771532,1.36252468382763,-0.124974026826174,0.0161647278279891,0.112736441468619,0.0957813156377756,0.001010515158672,-0.00314382181577175,0.743629803376593,0.0674878863794744,0.811117689756067
175.919999999848,66360,-0.0579091896103046,0.180161797383215,6.46054070807171,5.4889,1409,1571,1471,1522,0.0205823257004321,0.0355475134627441,-0.0424378538918633,-0.0204399948316724,-0.610209438539711,-9.90129710296326,1.77753963603092,-0.72774466281436,-20.7657673212859,0.0726677614588112,-0.0844587132452959,-0.126087304008999,1.40364593634545,-0.12913520841933,0.0125765547229675,0.112736441468619,0.0957813156377756,0.001010515158672,-0.00314382181577175,0.745422984309469,0.0675150796310905,0.812938063940559
175.969999999848,66380,-0.0694851281153646,0.200206197016203,6.44068818091118,5.5668,1409,1572,1471,1521,0.00305350131709241,0.0411921260750753,-0.040239055860975,0.00393271061584222,-0.659164406353059,-9.83556357825275,1.84871794107773,-0.734292767113352,-20.765195479378,0.0734754369969266,-0.082329416011423,-0.128038597684341,1.44332103931676,-0.13305483539888,0.0109070618414764,0.112390014869668,0.0971406706377757,0.00121251528558531,-0.0034935965893674,0.744452196921244,0.0687013766201208,0.813153573541365
176.019999999848,66400,-0.0925739427483052,0.20022561983217,6.46047287706166,5.5668,1409,1572,1470,1521,-0.0101011034512421,0.0325699237604098,-0.0355010387436927,-0.0380106524366123,-0.667725963774494,-9.74061863535958,1.9218724081677,-0.741036885163379,-20.7647897625847,0.0733711216352166,-0.0803195542137519,-0.129795388305991,1.48249445396004,-0.136736529372459,0.00569739292402764,0.112735257817494,0.0971406706377757,0.00161541510093012,-0.00349393551750601,0.746126990809569,0.0687094968479675,0.814836487657536
176.072499999848,66420,-0.0926320361448803,0.240269518800667,6.4603783788387,5.4889,1408,1573,1470,1522,-0.0138398848514736,0.0123189489729329,-0.032016202594956,-0.0277596469569287,-0.611017053340254,-9.97649137400396,1.9969575030053,-0.747976209687691,-20.764621762468,0.0728295217037795,-0.0790143884471743,-0.131372842716659,1.52098351767248,-0.14047252488683,0.000266149915296497,0.112733608823503,0.0957813156377756,0.00161642883070035,-0.00419270155450629,0.746338535283803,0.0675738475636829,0.813912382847485
176.119999999848,66440,-0.0695439052299146,0.24024626237845,6.44059367854111,5.4889,1408,1573,1471,1522,0.0152872034687926,0.00693110838063638,-0.0301332188124177,0.00138854687671341,-0.656753048809217,-9.92618767246219,2.07393876395092,-0.75508687432195,-20.7646719691536,0.0729995386194879,-0.0785264728107132,-0.132902852340819,1.55828814273817,-0.14411570439539,-0.00208081813790496,0.11238836580331,0.0957813156377756,0.0012135409462342,-0.0041922957299386,0.743123043125346,0.0676039097528842,0.81072695287823
176.169999999848,66460,-0.0811277827849491,0.260300763686502,6.42072647006699,5.411,1408,1574,1471,1523,0.0280500427260711,0.0163884021635646,-0.0294583663880121,-0.046475237985757,-0.651268022105336,-9.67950461695629,2.15279696572309,-0.762363029998879,-20.7649031895862,0.0742316960215201,-0.0778762174562998,-0.13433192409535,1.59576751976319,-0.146711022586297,-0.00636746745199246,0.112041683015437,0.0944219606377757,0.00141567960956956,-0.00454224677776411,0.737885966473136,0.0664948681102991,0.804380834583435
176.222499999848,66480,-0.0811277827849491,0.260300763686502,6.42072647006699,5.4889,1408,1574,1471,1522,0.0305070953366307,0.0296469281009657,-0.0264504784442464,-0.028076733851352,-0.621191125828189,-9.90931069071666,2.23351276975265,-0.769771379342306,-20.7652620225576,0.0758507899213959,-0.076639355736016,-0.135643968977879,1.63294964168776,-0.149256694416538,-0.00901847663967856,0.112041683015437,0.0957813156377756,0.00141567960956956,-0.00454224677776411,0.742542855570912,0.0676567992549635,0.810199654825875
176.272499999848,66500,-0.127316428008639,0.260395294244831,6.40087128885997,5.411,1409,1575,1470,1523,0.00766320436875715,0.0392710176751182,-0.0254980512863248,0.00965749637479507,-0.6421517895644,-9.82457367404133,2.31605989657569,-0.777276772459915,-20.7657121431229,0.0770256887171065,-0.0747421803029303,-0.136783787290763,1.66897369751677,-0.150834869588067,-0.00904087933576034,0.111695210103374,0.0944219606377757,0.00222167146872294,-0.00454389633600696,0.737158521384411,0.0665513241047892,0.8037098454892
176.322499999848,66520,-0.0927151723286912,0.280360663179397,6.40085284720018,5.411,1408,1575,1471,1523,0.00260746004985438,0.0257325993232711,-0.025794316818207,-0.0482169712041151,-0.654457789698474,-9.65443165173728,2.40040947018069,-0.784822417565368,-20.7662877808831,0.0772503837100141,-0.0729934960515904,-0.137941050759766,1.70458641795643,-0.15101164796468,-0.0132419054088487,0.111694888296411,0.0944219606377757,0.00161787955710784,-0.00489229202391513,0.736424385759411,0.0665877687862979,0.803012154545709
176.372499999848,66540,-0.104304635005219,0.300424992046242,6.38097294752836,5.411,1408,1576,1471,1523,0.00636944873066574,0.0180216725128053,-0.0225807758959085,-0.0330504308134038,-0.596748407206638,-9.88441019115638,2.48650919457684,-0.792404254645987,-20.7669998833679,0.0775230297427884,-0.0717998066994191,-0.1390739063668,1.73946659147062,-0.152055334158608,-0.0162463933364752,0.111347984047138,0.0944219606377757,0.00182011568081327,-0.00524241456264158,0.735379875733074,0.066318269916722,0.801698145649796
176.422499999848,66560,-0.104304647747996,0.300425429426631,6.38097292349236,5.4889,1408,1576,1471,1522,0.0190794701631121,0.0147768190294698,-0.019327651749328,0.00625542584560057,-0.670082218889455,-9.87256224526571,2.57432560606787,-0.800021185429872,-20.7678081347743,0.0782164541794206,-0.0709536962229271,-0.140085962919851,1.77323061307048,-0.152904011471156,-0.0163767619845665,0.11134798362771,0.0957813156377756,0.00182011590317473,-0.00524242219492937,0.737674504971604,0.0677747154188479,0.805449220390452
176.472499999848,66580,-0.115897175793916,0.320494364708187,6.36108678880011,5.411,1408,1577,1471,1523,0.0242020521278688,0.0149576410675502,-0.0168375907670473,-0.0482363492221188,-0.674947763226121,-9.61167372547436,2.66384052835976,-0.807658803607411,-20.7686937563612,0.0793369990240394,-0.0701275679321669,-0.140922693340055,1.80701052900187,-0.152508418103562,-0.0177722575255237,0.11100097057733,0.0944219606377757,0.00202240551757602,-0.00559262511559253,0.732327540477939,0.0666687310016898,0.798996271479629
176.519999999848,66600,-0.13898165557508,0.320525414873074,6.38086464170898,5.411,1408,1577,1470,1523,0.0235221838329181,0.0199989590251818,-0.0147010711521199,-0.0335692493240265,-0.622879114792103,-9.96553248828867,2.75503376589235,-0.815274997236043,-20.7696013981372,0.0806361689767003,-0.0691721699389491,-0.141633947259985,1.8408958063075,-0.151698951595293,-0.0203661793791619,0.11134609411059,0.0944219606377757,0.00242522968975734,-0.00559316694096979,0.737922732295299,0.0666992286196306,0.80462196091493
176.572499999848,66620,-0.10438854497107,0.34047917333973,6.38083720094963,5.411,1407,1577,1471,1523,0.0297722217042778,0.0221488631413465,-0.0123545157764212,0.00958984591756484,-0.668669653537425,-9.90317615321652,2.84789605850521,-0.822825027417883,-20.7706555902019,0.0819927325906466,-0.0680814018829327,-0.142223741130721,1.8736571569113,-0.150330455959475,-0.0221443238871979,0.111345615269339,0.0944219606377757,0.00182157990971737,-0.00594136002621295,0.736488094659739,0.0667281917298291,0.803216286389568
176.622499999847,66640,-0.10438854497107,0.34047917333973,6.38083720094963,5.411,1407,1577,1471,1523,0.0303697852584304,0.0277320453929084,-0.0100518008841224,-0.0522663166141918,-0.690947844042711,-9.6583534577699,2.94240600120999,-0.830271158730801,-20.7719130004108,0.0835411559005313,-0.0667994614293577,-0.142682537581554,1.90635174677956,-0.147471897345,-0.0273780448694155,0.111345615269339,0.0944219606377757,0.00182157990971737,-0.00594136002621295,0.735455604752254,0.0667603988667805,0.802216003619034
176.669999999847,66660,-0.104402872055826,0.340535850107747,6.3214111935964,5.411,1408,1578,1472,1523,0.0254056953543966,0.0336484805587227,-0.00509982940198215,-0.033831998275063,-0.638261962195843,-9.8476132979541,3.03852128685392,-0.837590359793045,-20.7732709497392,0.0849874327500799,-0.0651914842667855,-0.142926608950264,1.93826009730808,-0.144869576564393,-0.0270612221522048,0.110308631441025,0.0944219606377757,0.00182182991734636,-0.00594234903581482,0.732026206608139,0.0667850445725289,0.798811251180668
176.722499999847,66680,-0.0928953189794996,0.360518774080679,6.34115820276504,5.3331,1407,1578,1472,1524,0.0213659082476785,0.0321803905894289,-0.00129483463886461,0.0113812105125767,-0.673635354798051,-9.85138453825535,3.13619921689377,-0.844745438243986,-20.7746099799329,0.0861137371655849,-0.0635191539730606,-0.142929083424586,1.96888972714665,-0.141286831361948,-0.0269208633751933,0.110653216751018,0.0930626056377758,0.00162102311616446,-0.00629105105914251,0.730044844584539,0.0655684581356857,0.795613302720224
176.769999999847,66700,-0.0928953189794996,0.360518774080679,6.34115820276504,5.3331,1407,1578,1472,1524,0.0238204779832323,0.0289572211517566,-0.000905531871342128,-0.0569872324615024,-0.696195857923858,-9.60621648980233,3.23541644343108,-0.851668866359913,-20.7760713014091,0.0872096138234229,-0.0620154234578481,-0.142857460518655,1.9993674135869,-0.135654535706687,-0.0307126907014637,0.110653216751018,0.0930626056377758,0.00162102311616446,-0.00629105105914251,0.729810760638594,0.0657376782477852,0.795548438886379
176.822499999847,66720,-0.104496427172823,0.380595204543896,6.32125980217906,5.3331,1407,1579,1472,1524,0.0232535633746251,0.0264285362339864,0.00130818547849817,-0.0381298326595819,-0.630008576809343,-9.92673911310822,3.33613305289217,-0.858322742170311,-20.777632977692,0.0884003599252484,-0.0606016097512019,-0.142735275540709,2.0293748935515,-0.130147419441525,-0.0326531703686495,0.110305989660793,0.0930626056377758,0.00182346245413793,-0.00664138477072563,0.730661163605496,0.06565887372587,0.796320037331366
176.872499999847,66740,-0.139188968582096,0.400715358222022,6.32113687132441,5.3331,1407,1580,1471,1524,0.0225299455881294,0.023576868926738,0.00589211393373042,0.0156951093376848,-0.689065498691309,-9.86543658071042,3.43831670888912,-0.864691313321139,-20.7792584729394,0.089624654008186,-0.0593715420150082,-0.142423737662347,2.05809908656508,-0.124539540847914,-0.0320508988773129,0.110303844517379,0.0930626056377758,0.00242884730172976,-0.00699248145240895,0.729291130458337,0.0657927251466872,0.795083855605024
176.922499999847,66760,-0.150793818569425,0.420803109278249,6.30122477217121,5.3331,1407,1581,1471,1524,0.0247444279132204,0.0177940567701369,0.00798547326679763,-0.0496822148543524,-0.720125355259162,-9.55608207958545,3.5419539154576,-0.870727917848333,-20.7809828856688,0.0907417528887192,-0.0583969388756489,-0.14199065684164,2.08698476569745,-0.11698339377343,-0.0357836604762588,0.109956378387155,0.0930626056377758,0.00263135193400866,-0.00734301270834008,0.725686286675736,0.0658343009300503,0.791520587605787
176.972499999847,66780,-0.162293814966469,0.400819157969259,6.28148111228807,5.3331,1408,1581,1471,1524,0.0263413963682315,0.0138819546304047,0.0112896774576165,-0.0385209318707489,-0.661392704156238,-9.92076232818314,3.6470191696215,-0.876400599083964,-20.7827589173173,0.0919401575871654,-0.0576972926797649,-0.141444783629848,2.11571718133368,-0.109520700816468,-0.0363141289019303,0.109611851522195,0.0930626056377758,0.00283202687113709,-0.00699429275799822,0.72746422586417,0.0658672036801872,0.793331429544357
177.022499999847,66800,-0.173899360463769,0.420911166382838,6.26156483152876,5.3331,1408,1582,1471,1524,0.0265880666244708,0.011999762051692,0.0160676337372764,0.0173528423519286,-0.713135537707331,-9.79334494001725,3.75349366363426,-0.881687289810913,-20.7844654851658,0.0932034098901516,-0.0571210315843641,-0.140705903337202,2.14338529977268,-0.102039571476165,-0.0317385554070914,0.109264312422945,0.0930626056377758,0.00303454364006496,-0.00734489830481517,0.723364111515286,0.0658944818772167,0.789258593392503
177.072499999847,66820,-0.20858542084,0.441050866769433,6.26141031748596,5.2552,1408,1583,1470,1525,0.0270347714345537,0.00745501821971477,0.0175734434752461,-0.0413463067296603,-0.732728328787611,-9.54394277233611,3.86137156125261,-0.886547855476953,-20.786057478924,0.0944888937703334,-0.0567154276518807,-0.139815128415875,2.17143881839714,-0.0923534926473501,-0.0311660487857941,0.109261616152898,0.0917032506377757,0.00363981539363019,-0.00769633607656126,0.719997670215889,0.0648384098246492,0.784836080040538
177.119999999847,66840,-0.185507746686484,0.441008301808172,6.24164266735602,5.2552,1408,1583,1471,1525,0.0310788599633186,0.00452504272232308,0.0194565992544782,-0.0411442902136534,-0.666786019585531,-9.94657644373762,3.97064944510532,-0.890929149690162,-20.7875473729534,0.0958200027274993,-0.0565391685647273,-0.138870376212703,2.19976794260395,-0.0824599458506455,-0.0294979276346365,0.10891667065813,0.0917032506377757,0.00323710997965133,-0.00769559331798726,0.722270734931823,0.0648769338031041,0.787147668734927
177.172499999847,66860,-0.185507746686484,0.441008301808172,6.24164266735602,5.2552,1408,1583,1471,1525,0.0390394213867001,0.00864167714577744,0.0220491795968062,0.0188626276745715,-0.718962298142673,-9.80838693488345,4.08132253078703,-0.894795156342209,-20.7889382128655,0.0975475988494738,-0.0563450760702284,-0.137809676595578,2.22731089093221,-0.0722670055955876,-0.025713771818711,0.10891667065813,0.0917032506377757,0.00323710997965133,-0.00769559331798726,0.720109284132508,0.0649116412275607,0.785020925360069
177.222499999847,66880,-0.197117884484707,0.461109295426559,6.22171481287525,5.2552,1408,1584,1471,1525,0.0374929467965805,0.0164013831427539,0.0248711134568855,-0.0429812645851129,-0.757179255175594,-9.46023260291043,4.19339380125593,-0.898107639136084,-20.7902600003951,0.0994256400379613,-0.0558335970503214,-0.136583070424445,2.25517617841687,-0.0602719125088873,-0.0259312811075076,0.108568929597441,0.0917032506377757,0.00343970688423032,-0.0080463556566281,0.716328757943638,0.0649490791968859,0.781277837140524
177.272499999847,66900,-0.220194831550096,0.461154079391535,6.24148072974823,5.2552,1408,1584,1470,1525,0.0301030568820229,0.0145303621702238,0.0307520532000281,-0.037953950710422,-0.696427660827583,-9.95261055199713,4.30684606058441,-0.900842629229026,-20.7914535390045,0.100994977384965,-0.055188998058474,-0.135091430217579,2.28307892164006,-0.0483667312332369,-0.0236912779529967,0.108568929597441,0.0917032506377757,0.00343970688423032,-0.0080463556566281,0.721134025486211,0.0649795662336817,0.786113591719893
177.319999999847,66920,-0.231806297624847,0.481261327659962,6.22154549557812,5.2552,1408,1585,1470,1525,0.0189424926383965,0.0102151877365759,0.0345673206562284,0.027382979283067,-0.743446057241382,-9.78509708197389,4.42167857442731,-0.902937674357128,-20.7926077560456,0.102156030924195,-0.0546943123040923,-0.133403422422561,2.31032438032193,-0.0356236087708547,-0.021190630486499,0.108565975010606,0.0917032506377757,0.00404501969352575,-0.008398008619101,0.718827363116501,0.0650143240800475,0.783841687196548
177.369999999847,66940,-0.243420466525589,0.50137305800079,6.20160461780206,5.2552,1408,1586,1470,1525,0.0234571637256478,-0.0030249287505743,0.0389538707600081,-0.0368585991117232,-0.794950856167938,-9.47971577557691,4.53788908486369,-0.90436148728813,-20.793707918714,0.103044493391107,-0.0547496580815679,-0.131562343561257,2.33777986175972,-0.021468476690412,-0.0218173674749103,0.108565975010606,0.0917032506377757,0.00404501969352575,-0.008398008619101,0.714878325361615,0.0650516345729254,0.779929959934541
177.419999999847,66960,-0.254912066240711,0.481381363012925,6.18186043691038,5.2552,1409,1586,1470,1525,0.0248948331179323,-0.00835093355156721,0.04499731298817,-0.0370729112169855,-0.738315613698932,-9.98757328341342,4.65546804851147,-0.905106762920896,-20.7946297027169,0.104101719046097,-0.0552509341080372,-0.129501113062464,2.36558574523194,-0.00780616059733289,-0.0170548803307582,0.107873470736854,0.0917032506377757,0.0044482153558726,-0.00840010323601019,0.717498271213876,0.0650836054492267,0.782581876663102
177.472499999847,66980,-0.231839001960448,0.48133456457968,6.1620995805608,5.1773,1409,1586,1471,1526,0.0399531949992781,-0.00593481433045807,0.0490676447735916,0.0272077457624511,-0.77753385083036,-9.75500675710939,4.77442530904876,-0.905142349223804,-20.7953127348793,0.105593017253809,-0.0558968654312574,-0.127186946959827,2.39289876743595,0.00638265312384571,-0.00930112872104661,0.107528643793554,0.0903438956377757,0.00404559038418202,-0.00839928660335006,0.711185261803908,0.0640404404113653,0.775225702215273
177.519999999847,67000,-0.231839001960448,0.48133456457968,6.1620995805608,5.0994,1409,1586,1471,1527,0.0426439631565438,0.00428251174780931,0.0510681352107245,-0.035323381015236,-0.806306360287182,-9.44249705185069,4.89477842553935,-0.904412965614137,-20.7957333299068,0.107558303251202,-0.0562124238875411,-0.124677834316515,2.42096562360038,0.0229314249662827,-0.00661188532552555,0.107528643793554,0.0889845406377757,0.00404559038418202,-0.00839928660335006,0.707651090768597,0.0630189674297426,0.770670058198339
177.572499999847,67020,-0.231839001960448,0.48133456457968,6.1620995805608,5.0994,1409,1586,1471,1527,0.0387848274864981,0.0134679063800598,0.0511493039461694,-0.031210989912522,-0.734816456431605,-9.98266212463452,5.01653690324598,-0.902846080912217,-20.7959215247833,0.109480838252378,-0.056036112180963,-0.122083563802993,2.44955208457022,0.040376797752188,-0.00300110993468833,0.107528643793554,0.0889845406377757,0.00404559038418202,-0.00839928660335006,0.712565332428855,0.0630715601736581,0.775636892602513
177.619999999847,67040,-0.231839001960448,0.48133456457968,6.1620995805608,5.1773,1409,1586,1471,1526,0.0258789289184108,0.0169133702505931,0.0535944486880416,0.0323050544605347,-0.798598797626387,-9.74933396505418,5.13970407733166,-0.900381898690246,-20.795957333103,0.110965538826735,-0.0555293275147243,-0.119412277969252,2.47722667886293,0.0579049804411356,0.00229499759518489,0.107528643793554,0.0903438956377757,0.00404559038418202,-0.00839928660335006,0.712082084059939,0.0641750372499617,0.7762571213099
177.672499999847,67060,-0.231839001960448,0.48133456457968,6.1620995805608,5.0994,1409,1586,1471,1527,0.0203492745012625,0.0131141930848599,0.0570926352432245,-0.0332216612849208,-0.827461102888137,-9.44718281429699,5.26427061793878,-0.897009352984428,-20.7958697238943,0.111933010996921,-0.0550897326756991,-0.116554870891433,2.50508576489255,0.0770410561292467,0.00222431981961972,0.107528643793554,0.0889845406377757,0.00404559038418202,-0.00839928660335006,0.708615193953601,0.0631418222794397,0.77175701623304
177.722499999846,67080,-0.278019578118813,0.481499084821374,6.14216602246583,5.0994,1410,1587,1470,1527,0.0142673140739765,0.00489153048698319,0.059091818366717,-0.0269563013674291,-0.76489158241539,-10.0160851671219,5.3902200841946,-0.89268771467716,-20.7956356509281,0.112617413808697,-0.054950479230802,-0.11361715625755,2.53303219129846,0.0962829203979308,0.00575998844801318,0.107180803204797,0.0889845406377757,0.00485144143814549,-0.00840215748156764,0.711104309268399,0.0631984645083357,0.774302773776734
177.772499999846,67100,-0.289633737198207,0.501618783926209,6.12221755984284,5.0994,1410,1588,1470,1527,0.0067818817436281,-0.00233666449680133,0.0618433710720201,0.0369132944596903,-0.807238986197585,-9.73347131741683,5.5175529625655,-0.887393665344348,-20.795230057853,0.112979052162623,-0.0551921983080469,-0.110602026768524,2.56043056096564,0.115234139483697,0.0116343463173665,0.106832702532025,0.0889845406377757,0.00505410851408089,-0.008753246230947,0.706818539545909,0.0632391155384573,0.770057655084366
177.822499999846,67120,-0.312697689516568,0.501667860540793,6.14196612307606,5.0994,1410,1588,1469,1527,0.014721896651671,-0.0165884929879998,0.065353626625946,-0.0208738440953403,-0.860441571770949,-9.5042891223841,5.64627862853497,-0.881124160743778,-20.7946208355588,0.113289365743755,-0.056088239524077,-0.107500689597261,2.58838201400574,0.135354225330355,0.0134560806271789,0.107177314960445,0.0889845406377757,0.00545657448203628,-0.00875410261787149,0.707294945491856,0.0632825635703023,0.770577509062158
177.872499999846,67140,-0.324313036281139,0.521793574330229,6.12201056334639,5.0215,1410,1589,1469,1528,0.0180916710737255,-0.022082386112496,0.0662062305183235,-0.0288839202803111,-0.778733864438671,-10.1193688904082,5.77641726603016,-0.87386142984566,-20.793839894573,0.113932424175995,-0.0573807876691439,-0.10431788509179,2.6174053016914,0.155798903196116,0.0161925261518741,0.106829090443162,0.0876251856377756,0.00565926228307807,-0.00910529632349716,0.708098420766851,0.0622906416967329,0.770389062463584
177.922499999846,67160,-0.335803932960647,0.501788536372472,6.10225535534644,5.0215,1411,1589,1469,1528,0.0278004861911757,-0.0192530471206376,0.0675775859558752,0.0386657577324113,-0.822564009930491,-9.76373218886214,5.9080025720983,-0.865564147788591,-20.7928801753028,0.114968576383206,-0.0588456379584797,-0.10112115355911,2.64623902812642,0.175825761494842,0.0238916099795648,0.106484362063563,0.0876251856377756,0.00585977843013548,-0.00875620841113429,0.703672541966396,0.0623351391427618,0.766007681109157
177.972499999846,67180,-0.358911760902286,0.501906795688136,6.06253557513377,5.0215,1412,1590,1469,1528,0.025141220694091,-0.0103285996947611,0.0697532053710099,-0.00960150439258078,-0.873203591003079,-9.32024534514929,6.04106517051663,-0.856228115017353,-20.7916513806781,0.116171358899198,-0.0599951756614197,-0.0978012095944101,2.67602430744702,0.197337464094281,0.0271391118430347,0.105791251898852,0.0876251856377756,0.00626301002771709,-0.00875827203619261,0.697362700525036,0.0623803573255254,0.759743057850562
178.019999999846,67200,-0.381964797087104,0.501956214995611,6.08227012662588,5.0215,1412,1590,1468,1528,0.00977683572729204,-0.0139820238109842,0.0728060075725957,-0.0193438750937106,-0.81565995407773,-10.1060885482518,6.17562656240675,-0.845843047627554,-20.7900658504766,0.116770203551463,-0.0609736632528516,-0.0943207619959904,2.70666692937632,0.21866519493998,0.0334848731379632,0.10613561982239,0.0876251856377756,0.00666528550914216,-0.00875913440310806,0.704448996790202,0.0624261105568599,0.766875107347062
178.069999999846,67220,-0.381964797087104,0.501956214995611,6.08227012662588,4.9436,1412,1590,1468,1529,0.00446571957228448,-0.0193262528645768,0.0754737844562733,0.0449893220111342,-0.836275748349808,-9.75862667480433,6.31171656561015,-0.834380142463503,-20.7882241459321,0.116893908947092,-0.0622247041434202,-0.0907113004715235,2.73715101977326,0.23974899690988,0.0414694266427323,0.10613561982239,0.0862658306377757,0.00666528550914216,-0.00875913440310806,0.700456415082373,0.0614228353435633,0.761879250425937
178.122499999846,67240,-0.381964797087104,0.501956214995611,6.08227012662588,4.9436,1412,1590,1468,1529,0.00968798466058044,-0.027057955630786,0.0757213049950814,-0.00726687279237181,-0.886663753918309,-9.44652624896529,6.44936655555876,-0.821814389807374,-20.7861413867208,0.116973533346931,-0.0638486122451772,-0.0870933142188608,2.76867792057418,0.262601964962205,0.0429351864957827,0.10613561982239,0.0862658306377757,0.00666528550914216,-0.00875913440310806,0.698786842513917,0.0615004346487209,0.760287277162638
178.169999999846,67260,-0.393458787900502,0.481937822876678,6.06250083249232,4.9436,1413,1590,1468,1529,0.0127012689599225,-0.0243794201772719,0.0770173621469429,-0.01557771093146,-0.83247950196259,-10.1591744067801,6.58860509531392,-0.808143361551549,-20.7838025151362,0.117306687905408,-0.0656069353196889,-0.0834520204760306,2.80113096025755,0.284712862660315,0.0484545270468595,0.105790645639759,0.0862658306377757,0.00686585564883594,-0.00840981346063269,0.701070759607535,0.0615498532212759,0.762620612828811
178.222499999846,67280,-0.405071424759307,0.502073117958667,6.0425380579968,4.9436,1413,1591,1468,1529,0.00977144354204841,-0.0245131058824913,0.0798328512627941,0.0474958689414605,-0.866036070635872,-9.72525279233471,6.72946606541876,-0.793369243253753,-20.7811426308859,0.117605918009085,-0.0672738137623204,-0.0796958204319941,2.83352671822112,0.30601807025432,0.0593179339915397,0.105442295224812,0.0862658306377757,0.00706849616202209,-0.0087611743598134,0.697317129876082,0.0615941019431912,0.758911231819273
178.269999999846,67300,-0.381905765032477,0.461868430222453,6.02299334006888,4.8657,1414,1590,1469,1530,0.0147523139997126,-0.0186084045579238,0.0816529101476927,-0.00268813714672211,-0.904827240273882,-9.32307614454577,6.87198500214424,-0.777489422445989,-20.7781355847106,0.1180026566937,-0.0688873973299329,-0.0757951055999778,2.8670415299782,0.329032584487162,0.0625711189056316,0.10510123989697,0.0849064756377757,0.00666425539978892,-0.00805960255881647,0.691382342999023,0.0606334994286946,0.752015842427718
178.319999999846,67320,-0.381905765032477,0.461868430222453,6.02299334006888,4.8657,1414,1590,1469,1530,0.0102374723797822,-0.00790847678127108,0.0823578909162118,-0.00660392855947189,-0.850686735225822,-10.128399146116,7.01618358427376,-0.760484755816831,-20.7747304386036,0.118394230354474,-0.0700102427246225,-0.071789770541511,2.90121602688299,0.351765626478998,0.070463214436133,0.10510123989697,0.0849064756377757,0.00666425539978892,-0.00805960255881647,0.695927120230547,0.0606894847598076,0.756616604990355
178.369999999846,67340,-0.347238078168344,0.441695402011904,6.02320733442937,4.8657,1414,1589,1470,1530,0.00111973775925111,-0.00394900329880949,0.0834461024882169,0.0447488687903448,-0.892002000801842,-9.69920549097388,7.16208963634962,-0.742330078485312,-20.7710122632171,0.118307169346726,-0.0707812278290154,-0.0676961125681903,2.93514131693845,0.374204871726031,0.0789339100818043,0.10510497409856,0.0849064756377757,0.00605930426400979,-0.0077075832165424,0.693856080726559,0.060737672726404,0.754593753452963
178.419999999846,67360,-0.347238078168344,0.441695402011904,6.02320733442937,4.7878,1414,1589,1470,1531,-0.00380373060520159,0.000578093403499809,0.0814356837598149,-0.00654324421361618,-0.902700395416598,-9.29582466775933,7.30971822559356,-0.723007788187921,-20.767046648775,0.117966949447915,-0.0713318140437952,-0.0636046182683992,2.96972311806214,0.398415715421789,0.0809712130270081,0.10510497409856,0.0835471206377757,0.00605930426400979,-0.0077075832165424,0.690739667652098,0.0598087284539791,0.750548396106078
178.469999999846,67380,-0.370296646283046,0.44173827171228,6.04294749696241,4.7878,1414,1589,1469,1531,-0.0162693288079471,-0.00318358392641395,0.0797488457188477,-0.00461564048648155,-0.842266816398383,-10.2266868574264,7.45907263192219,-0.70251181184639,-20.7628471178172,0.117170886915259,-0.0718151766963954,-0.0595924322352117,3.00478165324247,0.421975309063045,0.0835060190028594,0.105449439934762,0.0835471206377757,0.00646167627761132,-0.00770833129281396,0.697196216516337,0.059864894702112,0.757061111218449
178.519999999846,67400,-0.370296646283046,0.44173827171228,6.04294749696241,4.7878,1414,1589,1469,1531,-0.0203648859770038,-0.00877229722866135,0.0787780105896041,0.0428343650811309,-0.877586415136622,-9.79587035178357,7.61017360989299,-0.680840352992277,-20.758580415451,0.115966695772484,-0.0725693342792103,-0.05568427390991,3.03932635995056,0.444472984421964,0.088765359768819,0.105449439934762,0.0835471206377757,0.00646167627761132,-0.00770833129281396,0.695192600537152,0.0599173636842068,0.755109964221358
178.569999999846,67420,-0.347238385852991,0.441695159424491,6.02320732887121,4.7878,1414,1589,1470,1531,-0.0113636643192961,-0.015359965069309,0.0786868962387536,-0.0131796795709928,-0.909998675478647,-9.34993179746501,7.76303050594582,-0.658029821093424,-20.7542207894275,0.114825008647459,-0.0736500962104865,-0.0518439093390853,3.07463800341849,0.467542837358167,0.0876319507363271,0.10510497400157,0.0835471206377757,0.00605930963310688,-0.007707578983392,0.691801675647382,0.0599704029657881,0.75177207861317
178.622499999846,67440,-0.358743070753494,0.421669755328655,6.00342585187961,4.7099,1415,1589,1470,1532,-0.00741564441953315,-0.00645543454023619,0.0770693182715659,-0.00442341513354139,-0.841363924414898,-10.2259372778253,7.91764375197523,-0.634115083313843,-20.7496438977653,0.114125064274492,-0.074640969140913,-0.0480151626066765,3.11025295133487,0.489662649242203,0.0922230926522264,0.104759787228067,0.0821877656377757,0.00626006638462065,-0.00735813568191969,0.691826837858305,0.0590554051922091,0.750882243050515
178.672499999846,67460,-0.324072095803975,0.401506244376724,6.00362397430167,4.7099,1415,1588,1471,1532,-0.00512338658365176,0.000315435141350873,0.0758777378022975,0.0359297954748093,-0.886790876632296,-9.76218752562473,8.07403310304795,-0.609089571606739,-20.7448704874285,0.113442624476734,-0.0752475744259797,-0.0442306571879467,3.14529447373914,0.510960533138611,0.10037377224103,0.104763244464332,0.0821877656377757,0.00565505787175154,-0.00700628241580849,0.689929801790817,0.0591059860916567,0.749035787882474
178.719999999846,67480,-0.347137230095943,0.401545565384169,6.02337128673542,4.7099,1415,1588,1470,1532,-0.0134513045785579,0.0146410032235026,0.074728618878132,-0.0106126747128867,-0.900237723211541,-9.29535105635086,8.2322048887872,-0.582971796428691,-20.7399444687927,0.112787812522341,-0.0752792276915692,-0.0404346964072482,3.18128745854554,0.533510128671273,0.0977968212082427,0.105107835066301,0.0821877656377757,0.0060575444651464,-0.0070069685673884,0.69099813878764,0.059157595577894,0.750155734365534
178.769999999846,67500,-0.324072426716218,0.401506521736238,6.00362393484899,4.632,1415,1588,1471,1533,-0.0254970994279836,0.0133239196401279,0.0732124463540944,-0.00182996767387933,-0.82715076875224,-10.236349201187,8.39215901401156,-0.555770018600861,-20.7349718891572,0.111455255846096,-0.0749837266784426,-0.0366537625232826,3.21710758979424,0.55511622850042,0.0981114229723597,0.104763243775883,0.0808284106377757,0.0056550636461702,-0.007006287255732,0.690879406130668,0.0582351820771548,0.749114588207822
178.822499999846,67520,-0.312467145924761,0.381388311435169,6.02356231353123,4.632,1415,1587,1471,1533,-0.0298458417657285,0.0115827408265281,0.0698176688158294,0.0312821709196697,-0.871096640184629,-9.83141253036381,8.55388400561965,-0.527481769054636,-20.7300066915902,0.109759498289636,-0.0747680947314841,-0.0330230287079041,3.25186870788177,0.575981862652504,0.101495450299003,0.105111168483888,0.0808284106377757,0.00545255149635927,-0.00665522448597837,0.691255539011998,0.0583121836908485,0.749567722702846
178.872499999845,67540,-0.312467145924761,0.381388311435169,6.02356231353123,4.632,1415,1587,1471,1533,-0.0302581381745848,0.0112262166705868,0.0666041358000283,-0.0257055502425557,-0.872538462582462,-9.30391405996574,8.71737402377041,-0.498136415400828,-20.7251519762867,0.107983221642642,-0.0745662146273916,-0.0295642575877647,3.28734255482975,0.597455597027991,0.094527107525248,0.105111168483888,0.0808284106377757,0.00545255149635927,-0.00665522448597837,0.690317486781499,0.0583663636552851,0.748683850436785
178.922499999845,67560,-0.312467145924761,0.381388311435169,6.02356231353123,4.632,1415,1587,1471,1533,-0.0324918034774833,0.010825970373395,0.0642014924111358,-0.00723522599832316,-0.8146686100155,-10.3466694851138,8.88261263784099,-0.467780333548994,-20.7204174737783,0.106153320732464,-0.074356485550218,-0.0262445471366073,3.32254630992369,0.617231543948203,0.0910316621613722,0.105111168483888,0.0808284106377757,0.00545255149635927,-0.00665522448597837,0.693932438465516,0.0584166803941384,0.752349118859654
178.972499999845,67580,-0.323980602301429,0.361359784302808,6.00377227614289,4.632,1416,1587,1471,1533,-0.0377556924037344,0.0134067094037907,0.0631562065840498,0.0249325189683399,-0.866758732534744,-9.80853656671126,9.0495931401169,-0.436455849633934,-20.7158372221565,0.104169898798117,-0.0740762272297457,-0.023008146128429,3.35660495402291,0.63524701153743,0.0937808013415934,0.104765832331461,0.0808284106377757,0.00565346131013211,-0.00630572668751867,0.690046772014505,0.0584613074225499,0.748508079437055
179.019999999845,67600,-0.312380050018754,0.341245434030022,6.02370347435711,4.632,1416,1586,1471,1533,-0.0376602515083416,0.0162694412350893,0.0621078602499306,-0.0301853266417036,-0.870473816940961,-9.28727413699738,9.21830288460346,-0.404220941705922,-20.7114087289579,0.102051848835755,-0.0736982684758454,-0.0198123732119258,3.39142416643011,0.65379048653569,0.0847970349342377,0.105113631740299,0.0808284106377757,0.00545103167279945,-0.00595473127525852,0.69126480307501,0.0585073030137961,0.749772106088807
179.072499999845,67620,-0.312380050018754,0.341245434030022,6.02370347435711,4.5541,1416,1586,1471,1534,-0.0421148021065822,0.0185562765764361,0.0587595721007136,-0.00685276772072363,-0.799804611638026,-10.3763761718449,9.3887258650689,-0.371114065669357,-20.7072149312842,0.0998279995334095,-0.0731183317158359,-0.0166914548288723,3.425836854881,0.671006049802938,0.0789444748398781,0.105113631740299,0.0794690556377756,0.00545103167279945,-0.00595473127525852,0.692635924092645,0.0576201615407587,0.750256085633404
179.119999999845,67640,-0.28930806249047,0.34121267097619,6.00394728546176,4.5541,1416,1586,1472,1534,-0.0454566089869881,0.019447217780024,0.0555559367067813,0.0154801453472512,-0.84712150358186,-9.82451714318241,9.56085061224097,-0.337157336644282,-20.7033482982899,0.0974255502363336,-0.0724628563270242,-0.0137502217182434,3.45900803008477,0.686687401345078,0.0776988457791898,0.104768886244076,0.0794690556377756,0.00504842549043089,-0.00595415955996917,0.689055213963446,0.0576642520591489,0.746719466022595
179.172499999845,67660,-0.289230336787851,0.301072821281738,6.00407276418698,4.5541,1417,1585,1472,1534,-0.0433284896145865,0.0227205627145012,0.053053056954326,-0.042048729372949,-0.837328279554401,-9.22486010269594,9.73464920945443,-0.302421899244203,-20.6997492341537,0.0950410885637544,-0.0717440150254564,-0.0109475797738031,3.49253985930243,0.702337570339404,0.0680282883511357,0.104771075847831,0.0794690556377756,0.00504706917692019,-0.00525371918280099,0.688259589988683,0.057707919114935,0.745967509103618
179.219999999845,67680,-0.312302966774326,0.301101732092917,6.02382891574868,4.5541,1417,1585,1471,1534,-0.052767261530012,0.0283299053316049,0.0508286624713503,-0.00819631876274962,-0.787453672910446,-10.390602752356,9.91009422603578,-0.266971868478488,-20.6964389063133,0.0924862084075334,-0.0706668874234917,-0.00823016364045356,3.52561613558348,0.716024518477901,0.0599532843591721,0.105115820692582,0.0794690556377756,0.00544968657018416,-0.00525422367645604,0.693115898605688,0.0577473739049974,0.750863272510686
179.269999999845,67700,-0.312302966774326,0.301101732092917,6.02382891574868,4.4762,1417,1585,1471,1535,-0.0633255162226328,0.0268668543415365,0.0466742228748959,0.0068907222019482,-0.814805760959829,-9.88640552337529,10.0871707582966,-0.230851034610517,-20.6935699222228,0.0894067800834874,-0.0694924282735976,-0.00565075539366466,3.55726620654537,0.728356002221228,0.0566166836123622,0.105115820692582,0.0781097006377757,0.00544968657018416,-0.00525422367645604,0.69026096455055,0.0568710061671735,0.747131970717724
179.319999999845,67720,-0.312302966774326,0.301101732092917,6.02382891574868,4.4762,1417,1585,1471,1535,-0.062751595445401,0.019193145871662,0.0434797761117084,-0.0498983619756037,-0.796404099594946,-9.25278194374486,10.2658455937321,-0.194128006449132,-20.6911320966646,0.0860357395308671,-0.0685544267342129,-0.00329031211771179,3.58927924946696,0.740192124813315,0.0432144568277143,0.105115820692582,0.0781097006377757,0.00544968657018416,-0.00525422367645604,0.689178029727868,0.0569086787122191,0.746086708440088
179.369999999845,67740,-0.323826476679565,0.281062477243301,6.00402210151311,4.4762,1418,1585,1471,1535,-0.0615593184368523,0.0175134809596233,0.0394014531586816,-0.0189223627023255,-0.744558501030927,-10.4105600607997,10.4460855623093,-0.156883787314154,-20.6891037763336,0.0827637072951821,-0.0678418139134802,-0.00114862428037147,3.62066427079724,0.749779358965991,0.0338331514772337,0.104770191784172,0.0781097006377757,0.00565077181803058,-0.00490453867933026,0.689459579331609,0.0569481360733304,0.746407715404939
179.422499999845,67760,-0.300755555431576,0.281035004899388,5.98426761817842,4.4762,1418,1585,1472,1535,-0.0601560443403821,0.0201065081996839,0.0365029936580742,-0.00702315317382585,-0.79425021405909,-9.85788473086684,10.6278744604753,-0.119196189591355,-20.6875078853633,0.0795876017927992,-0.0670795021520563,0.000817539134508799,3.65072748540611,0.757104652542717,0.0319084169628533,0.104425476049981,0.0781097006377757,0.00524818424225319,-0.00490405928692896,0.686679901955167,0.0569803995290847,0.743660301484252
179.469999999845,67780,-0.323826796755442,0.281062232133893,6.00402209208605,4.4762,1418,1585,1471,1535,-0.0605241572267713,0.0217388588385454,0.0339702119329078,-0.0576663457351724,-0.77178159542737,-9.20092824303472,10.811186559733,-0.081157892421115,-20.6862844079609,0.0764383056143051,-0.0661627681902515,0.00266009962786216,3.68134598986667,0.764035407252453,0.0191237768124383,0.10477019161967,0.0781097006377757,0.00565077740335465,-0.00490453440217109,0.687642909830215,0.0570124858317182,0.744655395661933
179.519999999845,67800,-0.335353323052146,0.261017843757326,5.98420866944945,4.3983,1419,1585,1471,1536,-0.0672595974972222,0.0258858311083516,0.029222417871499,-0.0243078547867379,-0.703328552851759,-10.3949347369864,10.9959921147978,-0.042839462373056,-20.6854067252822,0.0731496091023366,-0.0650593211017683,0.00433913965392794,3.71120310338214,0.768975103252918,0.0116173535110224,0.104424447394661,0.0767503456377757,0.00585191528723213,-0.004554759825,0.685943844637994,0.0561442884870173,0.742088133125011
179.569999999845,67820,-0.335353323052146,0.261017843757326,5.98420866944945,4.3983,1419,1585,1471,1536,-0.0735638342147827,0.0253044694874661,0.024649235063578,-0.0162440504616235,-0.741980736288219,-9.88967968897785,11.1822688467935,-0.00430123477359423,-20.6849233390222,0.0695476881974765,-0.0638701509397175,0.005774706846611,3.73968616486703,0.771934378393897,0.0094808194048616,0.104424447394661,0.0767503456377757,0.00585191528723213,-0.004554759825,0.685534020505795,0.0561738034952808,0.741707824001075
179.619999999845,67840,-0.335353323052146,0.261017843757326,5.98420866944945,4.3983,1419,1585,1471,1536,-0.0726256782080793,0.0203318703006196,0.0204311570330707,-0.0698718844792814,-0.712153603988747,-9.1616805325529,11.3699865687919,0.0343610576600882,-20.6848459693148,0.0657731894727745,-0.0628136503682328,0.0069759841536501,3.76858003797563,0.774095277116913,-0.0037519192554683,0.104424447394661,0.0767503456377757,0.00585191528723213,-0.004554759825,0.684245707718967,0.0562035874134142,0.740449295132381
179.672499999845,67860,-0.335353323052146,0.261017843757326,5.98420866944945,4.3983,1419,1585,1471,1536,-0.071964018467443,0.0189917110509049,0.0156370204942419,-0.0385565158133292,-0.656277441537486,-10.4641537818298,11.5591121703545,0.0730565085639276,-20.6851543634481,0.0620825418793346,-0.0618836248686546,0.0079358263627129,3.79680125678031,0.773826169685721,-0.0133561584085039,0.104424447394661,0.0767503456377757,0.00585191528723213,-0.004554759825,0.68630064345955,0.0562325052576197,0.74253314871717
179.719999999845,67880,-0.300692622096148,0.240888553653444,5.98436913423648,4.3204,1419,1584,1472,1537,-0.0601261272575478,0.021000284015585,0.0100652670130751,-0.0342106351729488,-0.690046516545571,-9.96435925828792,11.7496286241843,0.111705405123289,-20.685949333905,0.0586498002666801,-0.0609864144920196,0.00865262020161004,3.8236360868845,0.771658267640255,-0.0164968335149163,0.104427247505194,0.0753909906377757,0.00524708605554996,-0.00420350371268725,0.684331806304599,0.0553735751759843,0.739705381480583
179.769999999845,67900,-0.312225631273663,0.22084129626331,5.96454913521951,4.3204,1420,1584,1472,1537,-0.0625863093937769,0.0364092511887539,0.00462473533620585,-0.0837996976142319,-0.646215761241082,-9.06506225344876,11.9415032515435,0.150223329041598,-20.687188969883,0.0556297174652685,-0.0595788445201835,0.00910761900036548,3.85084730890734,0.76872186475158,-0.0297095739258785,0.104081388522348,0.0753909906377757,0.00544833706569759,-0.00385367907122942,0.680783928665896,0.0553973199645691,0.736181248630465
179.822499999845,67920,-0.277615006160129,0.240865821365654,5.96460760170665,4.3204,1419,1584,1473,1537,-0.0714639030807392,0.0443552744280766,-0.000700383260810475,-0.0432922465416044,-0.586888092466486,-10.3118414879741,12.1346905666606,0.188525800511846,-20.6887784031762,0.052256822968464,-0.0575413568316202,0.0093120912011761,3.87688227748414,0.763450080213053,-0.038261929278939,0.103736579328454,0.0753909906377757,0.00504565672976291,-0.00385330263724262,0.680607988269405,0.0554190315975199,0.736027019866925
179.872499999845,67940,-0.266025852947825,0.220768075201921,5.98451347321462,4.3204,1419,1583,1473,1537,-0.0744410076134444,0.0445925374730122,-0.00604142950865541,-0.0444100561859071,-0.634082943681142,-9.95540525811139,12.3291435335459,0.226537528556378,-20.6908348532348,0.0486133798998863,-0.0553377350557524,0.00925448008896364,3.90098367209324,0.756392762246883,-0.0427252104798655,0.104429766220363,0.0753909906377757,0.00464215093391174,-0.00385240136370816,0.684981993344483,0.055439216766617,0.7404212101111
179.922499999844,67960,-0.24294118975495,0.220747125983292,5.96474328202916,4.3204,1419,1583,1474,1537,-0.0717101121123042,0.0476071903929056,-0.0110659395736996,-0.108193456318554,-0.585067640403535,-9.04754478305287,12.5248043920151,0.264162957498264,-20.6934352306216,0.04498421748094,-0.0530197622171117,0.00893293618798819,3.92486275259119,0.748263758090602,-0.0582217805819281,0.104084776384177,0.0753909906377757,0.00423932356119608,-0.0038520357998431,0.681673923207522,0.0554585026369167,0.737132425844438
179.972499999844,67980,-0.219849956402996,0.220725997911483,5.94496622674785,4.3204,1419,1583,1475,1537,-0.0729659539733963,0.0518975430324654,-0.0155398142790212,-0.055544751272925,-0.524691527407749,-10.3125932844973,12.7216024703786,0.301305438796275,-20.696527059607,0.0413788611283363,-0.0504977854959382,0.00837141102902686,3.94727175946648,0.737460396835932,-0.0698300589034276,0.103739666769518,0.0753909906377757,0.00383638153920446,-0.00385166711499004,0.680966035074453,0.0554721591164056,0.736438194190859
180.022499999844,68000,-0.173623814701819,0.220652682390826,5.9648874785074,4.3204,1418,1582,1476,1537,-0.0622184057527494,0.0539301344653993,-0.0199660945278764,-0.0577955027582688,-0.593047932822785,-9.96485345669578,12.9194765184967,0.337879877493049,-20.7001953763266,0.0379338807006437,-0.0478638717898564,0.0075871941387752,3.96735638066776,0.724899532905834,-0.0759076868450907,0.104087292612722,0.0753909906377757,0.00302973536651894,-0.00385038775915455,0.683470648970276,0.055484045307252,0.738954694277528
180.072499999844,68020,-0.12738892422404,0.220579507108451,5.98478612435641,4.3204,1417,1581,1477,1537,-0.0581328085074652,0.0651789198864536,-0.0243338324143214,-0.136290455244629,-0.535290559610545,-9.07848326625919,13.1183527392033,0.373795841986615,-20.7045105346827,0.0349423678056099,-0.0448074050218421,0.00658857835032145,3.98697531867954,0.711506689480563,-0.0934315330628936,0.104434523982787,0.0753909906377757,0.00222293652768168,-0.00384911085047711,0.685032022867948,0.0554949518580961,0.740526974726044
180.122499999844,68040,-0.127388924231712,0.220579507104539,5.98478612434352,4.3204,1417,1581,1477,1537,-0.0583969804120864,0.0810783870272424,-0.0290354874467744,-0.0599065923527066,-0.466521686077289,-10.3221775057892,13.3181406038073,0.4089774532692,-20.7094957678545,0.0321820775585388,-0.0410782058145202,0.00537602302730954,4.00469938844445,0.695856859069333,-0.1105260915762,0.104434523982562,0.0753909906377757,0.00222293652781554,-0.00384911085040884,0.685539763946582,0.0555012267185811,0.741040990665163
180.169999999844,68060,-0.127388924231712,0.220579507104539,5.98478612434352,4.3204,1417,1581,1477,1537,-0.0720383052947819,0.0873183506505921,-0.0339424110621279,-0.060000888434745,-0.537634537589356,-9.94228366705743,13.5187539881029,0.443361245867988,-20.7153218731658,0.0290229850337385,-0.0367913512051252,0.00393018336735782,4.01942669935402,0.678854743307704,-0.121235390160051,0.104434523982562,0.0753909906377757,0.00222293652781554,-0.00384911085040884,0.685887875286267,0.0555058195069804,0.741393694793247
180.222499999844,68080,-0.127388924231712,0.220579507104539,5.98478612434352,4.3204,1417,1581,1477,1537,-0.0798751309853388,0.0841081513010161,-0.0387400838957425,-0.141198405465595,-0.470125980603291,-8.99264291815198,13.7200833978168,0.476859962155733,-20.7220127779991,0.0252461359097807,-0.0324381734175804,0.00222986110978313,4.03295963187451,0.660823611208383,-0.142930706018812,0.104434523982562,0.0753909906377757,0.00222293652781554,-0.00384911085040884,0.6850440845975,0.0555113284758335,0.740555413073334
180.269999999844,68100,-0.115853197362178,0.240602367755298,6.00458291390392,4.3204,1416,1581,1477,1537,-0.0861776782618352,0.0734788815869444,-0.0437090142478494,-0.0737695896372213,-0.392133898397823,-10.3972730231061,13.9220103808233,0.509380114781407,-20.7295368367479,0.02108463800123,-0.0283791474904972,0.000265023162213269,4.04421621412478,0.639971398074491,-0.163496836891343,0.104779977960391,0.0753909906377757,0.00202163809394219,-0.00419850976876461,0.687632959961705,0.055511736905085,0.74314469686679
180.322499999844,68120,-0.115853197362178,0.240602367755298,6.00458291390392,4.3204,1416,1581,1477,1537,-0.0726792414072342,0.0682800451823053,-0.0476285692572028,-0.0715450190100134,-0.478164629396129,-10.0960404714787,14.1244388569868,0.54081967262287,-20.738082456283,0.0172042612304766,-0.0248589686395589,-0.00193578452282703,4.05260045923002,0.61704211344762,-0.177073163637902,0.104779977960391,0.0753909906377757,0.00202163809394219,-0.00419850976876461,0.687872317603499,0.0555068294991623,0.743379147102662
180.372499999844,68140,-0.0927387405087891,0.240579454778625,5.98477717521635,4.3204,1416,1581,1478,1537,-0.0602983656337648,0.0673681088701625,-0.051762535371576,-0.159582696592679,-0.419050114053534,-9.06279365527437,14.3272734393203,0.571075538449311,-20.7476167065602,0.0138755099551236,-0.0214450878422261,-0.00436930322187274,4.06005439575585,0.593019329129194,-0.200060734678675,0.104434367820293,0.0753909906377757,0.00161829082185057,-0.00419810993732166,0.685020250645617,0.0554981668060913,0.740518417451708
180.419999999844,68160,-0.115868925270998,0.240637099070631,5.945092894644,4.3204,1417,1582,1478,1537,-0.0564361693321948,0.0816346541687353,-0.0560026723758143,-0.0764256210257688,-0.347143422423075,-10.2219132805805,14.5304102179182,0.600068180754034,-20.757927808881,0.0111181243805923,-0.0176297466526934,-0.00702064974909909,4.06547702550515,0.566741847701696,-0.216494332123355,0.103741877124306,0.0753909906377757,0.00202191254595108,-0.00419911583021717,0.6811181086081,0.0554918423462578,0.736609950954357
180.472499999844,68180,-0.15051822744367,0.220632225224,5.94509345865023,4.3204,1418,1582,1477,1537,-0.0714455116413604,0.086403946691233,-0.0602290969444861,-0.0704464856831269,-0.422010914547252,-9.92578360119048,14.7337576132908,0.627736884175357,-20.7689728817445,0.00804795307068121,-0.0133721975043447,-0.00988407886864028,4.06809190385124,0.539418610799723,-0.224702151829098,0.103741886966214,0.0753909906377757,0.00262654286886422,-0.00385003078159347,0.68114179986872,0.0554789848493457,0.736620784718066
180.522499999844,68200,-0.173682378920484,0.260770202074558,5.96479252372903,4.3204,1417,1583,1476,1537,-0.0843556889532959,0.0777043243933072,-0.0629232146813728,-0.146574359538043,-0.364737337316055,-9.00485689127825,14.9372115915079,0.653993665475227,-20.7807230855701,0.00411279461554974,-0.00917299692378776,-0.0129285363474948,4.06938033973092,0.510697208713661,-0.242465926988157,0.10408563565184,0.0753909906377757,0.00303075731213462,-0.00455043847763568,0.682115009673958,0.0554599587438114,0.737574968417769
180.572499999844,68220,-0.185278938175517,0.280861159961427,5.94488837763938,4.3204,1417,1584,1476,1537,-0.0924767763522652,0.0532841395448587,-0.0674385015220359,-0.08999365481322,-0.283955678990393,-10.3531270654287,15.1406639123962,0.678753890811047,-20.7931706105091,-0.000387571020557868,-0.00580383665240683,-0.0161838360516077,4.06870950449911,0.479595669644535,-0.259443919989377,0.103738308302575,0.0753909906377757,0.00323311727113495,-0.00490102569276154,0.680673456148238,0.0554486700938546,0.736122126242092
180.619999999844,68240,-0.19687792671218,0.300956866590323,5.9249785188116,4.3204,1417,1585,1476,1537,-0.069389033046097,0.0414055751454098,-0.0717351875936792,-0.0752045004913465,-0.356587564817548,-10.0575614650385,15.344032135281,0.701927270394653,-20.8063501055269,-0.00435164527404358,-0.00353243816231392,-0.0196712033268978,4.06587772061642,0.446738519355605,-0.266028492352658,0.10339088126603,0.0753909906377757,0.00343551962109971,-0.0052516957734358,0.678210097454224,0.0554292617398862,0.73363935919411
180.672499999844,68260,-0.208407119592875,0.280927385875545,5.90518009287635,4.3204,1418,1585,1476,1537,-0.0482316660000518,0.0363502048538546,-0.0758864643324515,-0.153255450280519,-0.318549012635808,-9.03983575944664,15.5472536341639,0.723418669181198,-20.820127648124,-0.00730123183283215,-0.00169860068315056,-0.0233724855788044,4.06251926009067,0.412795147628144,-0.281179021209978,0.10304539873346,0.0753909906377757,0.00363670403686784,-0.00490218133496293,0.674758797657015,0.0554095180297289,0.730168315686744
180.719999999844,68280,-0.196905000292689,0.300998192082262,5.86547906594428,4.3204,1418,1586,1477,1537,-0.0345335984169181,0.0530277856935426,-0.079011978589307,-0.0921117194737896,-0.246389902941657,-10.2044557396966,15.7502699798272,0.743164879575868,-20.8342746008054,-0.00927360081137052,0.000500020407265526,-0.027267692001796,4.0581609574667,0.377120333091457,-0.288472783374672,0.102352615813496,0.0753909906377757,0.0034359920550796,-0.00525241690327011,0.671927084887297,0.0553821035550907,0.727309188442388
180.769999999844,68300,-0.196905000292689,0.300998192082262,5.86547906594428,4.3204,1418,1586,1477,1537,-0.0377251103129606,0.0652693178570536,-0.0845828704635383,-0.0689970974670378,-0.30911156375304,-9.8862926771974,15.9530234230841,0.7611407771306,-20.8486965877853,-0.0110328218148183,0.0034186922128849,-0.0313923648889335,4.05177774031589,0.34146742752135,-0.287535785565679,0.102352615813496,0.0753909906377757,0.0034359920550796,-0.00525241690327011,0.671742801650388,0.0554037680694584,0.727146569719846
180.819999999844,68320,-0.231608295231612,0.321131120006608,5.8653469407976,4.3204,1418,1587,1476,1537,-0.0509833391176958,0.0693266006139896,-0.0887256515322014,-0.14131004915041,-0.262403415814027,-8.88563998231005,16.1554368695549,0.777309485381058,-20.8633928302513,-0.013253133852079,0.0068110210769785,-0.0357726028093803,4.04419006718071,0.305221753497824,-0.296470791641001,0.102350310229686,0.0753909906377757,0.00404156455176383,-0.00560373649554996,0.670082040037538,0.0553331262910883,0.725415166328626
180.872499999844,68340,-0.266305354288828,0.341271868906934,5.86519923097792,4.3204,1418,1588,1475,1537,-0.0690153574342097,0.0530650250459881,-0.0933190750300394,-0.0955758234699034,-0.173505323093386,-10.2358631482414,16.3574204132747,0.791624553903138,-20.8782945165654,-0.0163602739544454,0.00991772975424524,-0.0403717937069945,4.03504261968497,0.267339996670702,-0.304094157636037,0.102347732693333,0.0753909906377757,0.00464702823231224,-0.00595519256386065,0.671404460824278,0.0553082264939893,0.726712687318268
180.922499999844,68360,-0.312602341567441,0.381540378478148,5.84509697552775,4.3204,1418,1590,1474,1537,-0.0754674040268471,0.0327439364475507,-0.0990761721597057,-0.0635283368542377,-0.214369944131204,-9.9706185774104,16.5589011011747,0.804037892983256,-20.8934873902661,-0.0199820503367061,0.0119905905913636,-0.0452409475830194,4.02415185868481,0.228561534053413,-0.302286672095763,0.101996948335727,0.0753909906377757,0.00545491066032403,-0.00665787805587833,0.668379117700789,0.0552816902507252,0.723660807951514
180.972499999844,68380,-0.358898303720603,0.421832966574471,5.82495990928048,4.2425,1418,1592,1473,1538,-0.0535714690321054,-1.90044850957545E-05,-0.103674106687645,-0.140901960755481,-0.186190669811396,-9.02750501747133,16.7598300737855,0.814465439245632,-20.9088623896281,-0.0234476438629033,0.0126235887313777,-0.0503079373789069,4.01271021524358,0.188533945486187,-0.30840348307511,0.101300803209572,0.0740316356377757,0.00586008286562384,-0.00736026823831797,0.66057720008414,0.0543696527159695,0.71494685280011
181.022499999844,68400,-0.416700855345811,0.442104727795803,5.78499283958502,4.2425,1419,1594,1472,1538,-0.0354394150851897,-0.00909799213745938,-0.106851073835268,-0.112295786680754,-0.120145469001096,-10.3087402662697,16.9601850871921,0.822847760573374,-20.9242053056291,-0.0257581708582039,0.0122342719401508,-0.055566803238433,4.00157266187427,0.146794068053853,-0.308683431525289,0.100948131163526,0.0753909906377757,0.00727142972575661,-0.00771472595147143,0.662527280527929,0.0552207752648598,0.717748055792789
181.072499999843,68420,-0.486003078185965,0.442337453961831,5.72517936900162,4.2425,1421,1596,1471,1538,-0.0283288328979956,-0.011372146393998,-0.112783177408715,-0.0562159993407729,-0.131165103073762,-9.84092914065761,17.1599811350864,0.829158458655546,-20.9393380565409,-0.0272737438453024,0.0115411733335513,-0.0610536280800808,3.99057062088598,0.105381017392062,-0.29423926345962,0.0999043861018462,0.0740316356377757,0.00848075351431726,-0.00771878702306862,0.653923310773872,0.0543308337164741,0.708254144490346
181.122499999843,68440,-0.509227717634847,0.482643950945617,5.68522567128247,4.2425,1421,1598,1471,1538,-0.0242050148882231,-0.0166982112678832,-0.117762638032063,-0.112781198873471,-0.137703180028611,-8.922151875676,17.3592464180103,0.833388836613049,-20.9539643698773,-0.0287090428217315,0.0107124772402554,-0.0667982482520231,3.97988976179938,0.0637602525446572,-0.287324530671462,0.0995558322689593,0.0740316356377757,0.00868337161414288,-0.0080704261813401,0.649365454484646,0.0543039333170929,0.703669387801739
181.172499999843,68460,-0.555395369274193,0.482790307101241,5.665149515783,4.3204,1422,1599,1470,1537,-0.0288404841293458,-0.0245096886116737,-0.1208163987572,-0.111130777651987,-0.0674223549874709,-10.1897342793382,17.5579952022654,0.835517339131831,-20.9679175454447,-0.0300930412956106,0.00955840968095875,-0.0727573962150764,3.97009890882731,0.0212793558685872,-0.274851823384286,0.0988568651631813,0.0753909906377757,0.00969164899380685,-0.00842468931035131,0.649512558411379,0.05513574458451,0.704648302995889
181.222499999843,68480,-0.601662328324749,0.5231731680567,5.64487419749733,4.2425,1422,1601,1469,1538,-0.0275531032035829,-0.0344226578242938,-0.122971247442249,-0.0422825569386514,-0.0675466424804141,-9.78490606077233,17.7562514285153,0.835504803067265,-20.9811379983855,-0.0314840241796523,0.00789662541669575,-0.0787790496859009,3.9605352515839,-0.0217518988277068,-0.252519873931226,0.0985030608590963,0.0740316356377757,0.010499007429239,-0.00912937023402407,0.646098218355633,0.0542366388589961,0.700334857214629
181.269999999843,68500,-0.624896964573334,0.563521197292066,5.60487084224866,4.2425,1422,1603,1469,1538,-0.0153527357501627,-0.0517518650236115,-0.126972125118536,-0.0929560415476104,-0.101879279791215,-8.88711772382731,17.9540563836241,0.833351959532401,-20.9935319707839,-0.0326878485465221,0.00551102242543789,-0.0849586688446359,3.95164284802567,-0.0644894422800943,-0.239347842520979,0.097805002310007,0.0740316356377757,0.0109044518317769,-0.00983344334418119,0.638629081718573,0.054215409964466,0.692844491683039
181.322499999843,68520,-0.613482040755268,0.583642208593417,5.56516174507632,4.2425,1422,1604,1470,1538,-0.0030263652354191,-0.0532164181090254,-0.130017749071817,-0.113073039701844,-0.0147399909967747,-10.1721755019173,18.1514561609793,0.829049187765391,-21.0048484503831,-0.0332064383547635,0.00263436836564814,-0.0912926901081377,3.94444832952959,-0.107525865050592,-0.21798042086098,0.0971154847670377,0.0740316356377757,0.0107031708970168,-0.0094823150452132,0.637286274061547,0.0541885288271163,0.691474802888664
181.372499999843,68540,-0.590442073679947,0.583584903193042,5.54545213765844,4.3204,1422,1604,1471,1537,0.022300827208216,-0.0516457351384961,-0.131516837528851,-0.0343277055718826,-0.047020084607887,-9.6887770210945,18.3485017726141,0.822594677944149,-21.0150704536894,-0.0327085848645925,-0.000310242158656392,-0.097759591192719,3.9378083134236,-0.150844844583593,-0.189300610985629,0.0967681459149078,0.0753909906377757,0.0103032139856873,-0.0101835550121532,0.638051302964574,0.0550221940457422,0.693073497010316
181.422499999843,68560,-0.613562535918967,0.583697554399582,5.50563732931476,4.3204,1423,1605,1471,1537,0.0250036317913806,-0.0359125575303306,-0.130124495914364,-0.0829224836496152,-0.104796495351824,-8.72033800742089,18.5452505484791,0.813982081948236,-21.0240808240244,-0.0314439651709758,-0.00267940492341987,-0.104231731133226,3.93207548095417,-0.193622180926584,-0.1674653626132,0.0960733775093105,0.0753909906377757,0.0107066660517582,-0.0101855207757074,0.630328262070168,0.0549831464946739,0.685311408564842
181.469999999843,68580,-0.648223694475038,0.603938066991018,5.50532916058475,4.2425,1423,1606,1470,1538,0.0181752179965963,-0.0273591578433478,-0.131737525302424,-0.102821926308463,0.00126990710735725,-10.0507396107034,18.7417453748292,0.803249490095527,-21.0317112018114,-0.0302809486535324,-0.00439862244497245,-0.110713803281334,3.92780696992797,-0.235281037377909,-0.142454436438293,0.0960679999649717,0.0740316356377757,0.0113115032685616,-0.0105387177204279,0.631189950459218,0.0541017891036802,0.685291739562898
181.519999999843,68600,-0.625317463855307,0.644126520265672,5.48541157443793,4.3204,1422,1607,1471,1537,0.00423438377391972,-0.0327155388518938,-0.133726944395252,-0.0148657661177394,-0.0205831703015575,-9.57986858158687,18.9380225832545,0.790450406843747,-21.0381672038176,-0.0297497760996643,-0.00603070681474754,-0.117323912551252,3.92361875808677,-0.27678362744527,-0.113545900475142,0.0957204380867098,0.0753909906377757,0.0109117895442473,-0.0112400062300706,0.632850201733583,0.0549859313452642,0.687836133078847
181.572499999843,68620,-0.590781938762639,0.664121017075585,5.48549493715221,4.3204,1421,1607,1472,1537,0.016602612982936,-0.0501927151911809,-0.132848365025725,-0.0821251306494002,-0.0861755437978116,-8.84636224207602,19.1341132727109,0.775583040588264,-21.0434452193361,-0.0293315440021337,-0.00829691439001917,-0.123922799690871,3.91984463927514,-0.317968454775246,-0.0949390090899779,0.095721892766074,0.0753909906377757,0.0103091446313802,-0.0115889101994036,0.628410838922234,0.0549119370903231,0.683322776012557
181.622499999843,68640,-0.602412888736475,0.684304931366532,5.46547314657516,4.3204,1421,1608,1472,1537,0.0335779544614036,-0.0509969993426313,-0.131685512665304,-0.10467920347147,0.00785057480571566,-10.1278037586108,19.3300481735527,0.75865552372461,-21.0474652367612,-0.0280252608743801,-0.0110739817618834,-0.130456737242163,3.91773328546976,-0.358818948242823,-0.0710206797147953,0.0953725125205045,0.0753909906377757,0.0105121047084237,-0.0119411195037806,0.629429623033453,0.0548890437244846,0.684318666757938
181.672499999843,68660,-0.590995993923323,0.704422850412817,5.42573096513539,4.3204,1421,1609,1473,1537,0.0517427248709473,-0.0451457654420897,-0.129971469059223,-0.00419978583344147,-0.0265682192709675,-9.61899938795434,19.5258795759272,0.739704340927463,-21.0502562155377,-0.0258019677009528,-0.013701529175787,-0.136933748116941,3.91599495546434,-0.399143265978391,-0.0383930881679178,0.0946790114543805,0.0753909906377757,0.0103128798939342,-0.0122921771911383,0.626757173025282,0.0548639368920039,0.681621109917286
181.722499999843,68680,-0.602631181253854,0.724610514921463,5.40570272600413,4.2425,1421,1610,1473,1538,0.0513492953854021,-0.032078244049225,-0.131518923323208,-0.0698442531191708,-0.0689355388961241,-8.70342299480369,19.7216691268277,0.718798368997871,-21.0517071149448,-0.0230599649176413,-0.0157435533731048,-0.143434390824461,3.91540576351125,-0.437070794863008,-0.0162387012188127,0.09432951868154,0.0740316356377757,0.0105159139128519,-0.0126444519368142,0.61771053665737,0.053876103384938,0.671586640042308
181.772499999843,68700,-0.625835114868372,0.764926891206507,5.42516468974786,4.3204,1420,1611,1472,1537,0.0426578336025291,-0.0336789031252477,-0.130552448443922,-0.0986093381830888,0.0210612287289164,-10.0769792713632,19.9174623550783,0.695992928777103,-21.0518822855705,-0.0206012598833222,-0.0174648242634854,-0.149950887021048,3.91649004545472,-0.474643434809769,0.00471119169449371,0.0946691299488681,0.0753909906377757,0.0109208225544253,-0.0133479727029882,0.625992700260106,0.0548372119064545,0.68082991216656
181.822499999843,68720,-0.637474058029256,0.785121777771204,5.40512535142437,4.3204,1420,1612,1472,1537,0.0373607091809463,-0.0400324628716262,-0.129103817743793,0.0156216248301379,-0.00772859222077066,-9.64587611053141,20.113302485067,0.671336477032904,-21.0509596344157,-0.0184605539614624,-0.0194128845291617,-0.156408473054849,3.91761374999051,-0.511574081297673,0.0341537246551499,0.0943194434951232,0.0753909906377757,0.0111239221125827,-0.0137003734735422,0.62548371233397,0.0548216980501255,0.680305410384095
181.872499999843,68740,-0.614593416766165,0.825286158213612,5.38514065988146,4.3204,1419,1613,1473,1537,0.0519103710803735,-0.0539299126951817,-0.127300772650431,-0.0614424087443719,-0.0961023881086616,-8.85480139796417,20.3092405760134,0.644879628329054,-21.0488419982992,-0.0161614060825103,-0.0218897303030967,-0.162781083857488,3.91970964247975,-0.546713537717711,0.0536644007225993,0.0939707106276994,0.0753909906377757,0.0107246549225418,-0.0144012419122622,0.618608371965289,0.0548122167965075,0.673420588761797
181.922499999843,68760,-0.626237964843074,0.845483970415769,5.36509381510745,4.3204,1419,1614,1473,1537,0.0654546633439091,-0.0550969431252782,-0.126830908839254,-0.0961087316701027,0.0249394142618515,-10.1381079244966,20.5053275636545,0.61668601299323,-21.0454335514247,-0.0131016820699028,-0.0247636377666907,-0.169119055836546,3.92402970736759,-0.580648192999517,0.0776906314003765,0.0936208931863929,0.0753909906377757,0.0109278522864838,-0.0147536937351898,0.620615985221289,0.0548100542078142,0.675426039429103
181.972499999843,68780,-0.603363544523121,0.885638557906236,5.34508490348315,4.3204,1418,1615,1474,1537,0.0850277389204236,-0.0507174388838387,-0.124527628501637,0.0286837697735208,-0.0114595406859498,-9.64367144938652,20.7016322085455,0.586816331823481,-21.0408941833823,-0.00915254338945306,-0.027522982788553,-0.175379120133141,3.92871909072005,-0.614014314777125,0.10643549930895,0.0932717376785489,0.0753909906377757,0.0105286936519007,-0.0154543912868985,0.620621117412068,0.0548026126356675,0.675423730047736
182.022499999843,68800,-0.603363544523121,0.885638557906236,5.34508490348315,4.3204,1418,1615,1474,1537,0.0889800285731424,-0.0361709543685992,-0.121900491459883,-0.0580373575567573,-0.109804848942976,-8.81344581320503,20.8982285503231,0.555349375152544,-21.0351674968048,-0.00454579225014177,-0.0297496027761492,-0.181528945488571,3.93489453420943,-0.644589253982246,0.125220479765149,0.0932717376785489,0.0753909906377757,0.0105286936519007,-0.0154543912868985,0.61492209734785,0.0548016676251791,0.669723764973029
182.069999999843,68820,-0.568838180371146,0.905584982423331,5.34510956947451,4.3204,1417,1615,1475,1537,0.0924344559572619,-0.024456079040925,-0.11789791521695,-0.0965682935851399,0.0108027585778006,-10.090722295673,21.0951673370801,0.522365614299164,-21.0282656185162,0.000161872354791641,-0.0312984043741136,-0.187500037662964,3.94295686545481,-0.673806493100739,0.145613390482559,0.0932721681000981,0.0753909906377757,0.00992622604744868,-0.0158024563947218,0.619720729152802,0.0548029871306048,0.674523716283406
182.119999999843,68840,-0.557375165125931,0.925611936297213,5.36485277301951,4.3204,1416,1615,1475,1537,0.0833403055344238,-0.0179680910519469,-0.11545570141698,0.0335237169965069,-0.0375638849026485,-9.70905755736569,21.292498625994,0.487984802243124,-21.0204069013836,0.00474473152587303,-0.0322963619747053,-0.193335695736848,3.95079638480483,-0.701319924363002,0.169426320755623,0.0936166870019583,0.0753909906377757,0.00972619643141969,-0.016151926739821,0.622368794148673,0.0548063625966491,0.677175156745322
182.172499999842,68860,-0.522846820219176,0.945542001574881,5.36485223493513,4.3983,1415,1615,1476,1536,0.085100816908613,-0.0182662411008649,-0.110194163387301,-0.0712567390984101,-0.161091333499647,-8.90072473505113,21.4902665903163,0.452297169477212,-21.0117260983843,0.00912753879045483,-0.0331493412916184,-0.198997486302438,3.95947860852337,-0.726176120083604,0.180335841586438,0.0936166776123859,0.0767503456377757,0.00912367681279679,-0.0164997063789163,0.619138915175644,0.0556843902323967,0.67482330540804
182.222499999842,68880,-0.511389174741515,0.965556529132497,5.38458017166755,4.3983,1414,1615,1476,1536,0.0890055487229165,-0.0203332849675923,-0.105184490200623,-0.10203923472364,-0.0327164271873453,-10.2259555015877,21.6884909362327,0.415380432032317,-21.0023359141823,0.0136306997949403,-0.0340715921430902,-0.204393956492619,3.96980236302859,-0.749597063857098,0.190578465993967,0.0939609301083666,0.0767503456377757,0.00892374089921163,-0.0168489598847967,0.62649424142852,0.0556928559513677,0.682187097379887
182.269999999842,68900,-0.488521481801122,1.00566490656031,5.36449676943603,4.3983,1413,1616,1477,1536,0.0937825157648989,-0.0240929221547604,-0.0997550019581703,0.0368458918178671,-0.104794805521272,-9.79655580463539,21.8872128536082,0.377349230600594,-20.99239829569,0.0183015724639149,-0.0351072897581384,-0.209537484560916,3.97958722051494,-0.771605624421293,0.207989892589491,0.0936104747394266,0.0767503456377757,0.00852469965740176,-0.0175488510709121,0.624431290285739,0.0556978943015345,0.680129184587273
182.319999999842,68920,-0.47707109650143,1.02566703513219,5.38420749499634,4.3983,1412,1616,1477,1536,0.107997947917762,-0.0233209505895699,-0.0943032110153642,-0.0814486398836661,-0.218715574751396,-9.04739411873339,22.0864785414778,0.33830612711459,-20.9818936472375,0.0235066038195994,-0.0362105380781792,-0.214415459528284,3.99060282938869,-0.789990412832899,0.214352163419597,0.0939544269004541,0.0767503456377757,0.00832489043392214,-0.0178978882144914,0.62155318442143,0.0557103552570467,0.677263539678477
182.372499999842,68940,-0.442540601003583,1.04556303193441,5.38415577481287,4.3983,1411,1616,1478,1536,0.121269285292121,-0.011446259623324,-0.0887349127972755,-0.111569296348711,-0.0771940415413805,-10.2607910853665,22.2863199544344,0.298364142054254,-20.9708518878765,0.0294141751554836,-0.036993822790882,-0.219015188203314,4.00341727456817,-0.806572153999538,0.222771295991406,0.0939535243832524,0.0767503456377757,0.0077223332874847,-0.0182450733586901,0.628356807791984,0.0557265092714736,0.684083317063457
182.422499999842,68960,-0.44254090442287,1.04556277954727,5.38415578705573,4.3983,1411,1616,1478,1536,0.121122234797936,-3.31389442872069E-05,-0.0830803032574534,0.0332270052415294,-0.167183184302734,-9.82777198573305,22.4867809287772,0.257671621660241,-20.9594279956677,0.0357023770385019,-0.0371376615955861,-0.223321831618753,4.01551620446272,-0.821040819745942,0.235626289501124,0.0939535245968904,0.0767503456377757,0.00772233858215126,-0.0182450689545346,0.626628734580664,0.0557398122608982,0.682368546841562
182.472499999842,68980,-0.408005488305095,1.06545016144826,5.38408699143769,4.3983,1410,1616,1479,1536,0.11737417699128,0.0117098320785035,-0.0772913099054324,-0.100601657936822,-0.284089735051643,-8.99137902276573,22.6878990767099,0.216366594285983,-20.94764827834,0.0418465367427241,-0.0366462189687118,-0.227318482320641,4.02859392827289,-0.8309596909653,0.237978897396784,0.0939523241133557,0.0767503456377757,0.00711969557089611,-0.0185921037687068,0.622292351119884,0.0557603641644272,0.678052715284312
182.522499999842,69000,-0.396563471792068,1.0854316406275,5.40377304090907,4.3983,1409,1616,1479,1536,0.108376934948431,0.0106573952770295,-0.0732724820681433,-0.122394992754719,-0.140334869862163,-10.2869006301136,22.8896793936444,0.174596160707465,-20.9355680041475,0.0475893245294769,-0.035855376592573,-0.231034413502691,4.04299489155793,-0.838485070442469,0.240159860255669,0.0942958456766311,0.0767503456377757,0.00692003238274375,-0.0189407805803845,0.633322973459629,0.0560059338316152,0.689328907291244
182.572499999842,69020,-0.385124929665162,1.10540742800904,5.42345182403867,4.3983,1408,1616,1479,1536,0.108202416261287,0.00605841764760082,-0.0676397246370666,0.0288999033035945,-0.230149937334097,-9.95562754443673,23.0921423880147,0.132525947037731,-20.9234484670644,0.0531135782203168,-0.0352448152738984,-0.234528652795194,4.05597981374805,-0.844281793464295,0.24542985684144,0.0946392404422427,0.0767503456377757,0.00672042982262927,-0.0192893580701924,0.63064659255532,0.0558082156471028,0.686454808202423
182.622499999842,69040,-0.373689903740805,1.12537745658866,5.44312327009994,4.4762,1407,1616,1479,1535,0.119544619632305,0.000396774566193951,-0.0621977380423908,-0.0654687429239613,-0.381521799435028,-9.17552979805322,23.3054852451846,0.0881689241661813,-20.9108333946508,0.0591956562915867,-0.0349270697363427,-0.23793669016556,4.07057786006373,-0.845712343570136,0.239449459338185,0.0949825071760118,0.0781097006377757,0.00652088862024925,-0.0196378350689067,0.631534540570291,0.0569541905127293,0.68848873108302
182.674999999842,69060,-0.339157667615658,1.1452329172906,5.44301044504897,4.3983,1406,1616,1480,1536,0.131737413328617,0.00331067052466923,-0.0543747775679477,-0.167732480046258,-0.240205758784105,-10.1181623685929,23.5093972363034,0.0458708889487987,-20.8989307978477,0.0655461361437844,-0.0346687850107512,-0.24081476595302,4.08598902139495,-0.844700637369271,0.233255298971727,0.0949805383788724,0.0767503456377757,0.00591830109986543,-0.0199843128581555,0.636585146819553,0.0558545460050744,0.692439692824628
182.724999999842,69080,-0.339157667615658,1.1452329172906,5.44301044504897,4.3983,1406,1616,1480,1536,0.14023674138518,0.0129555239789391,-0.0487170087358375,0.0109918721371607,-0.258875671011834,-10.2982907052156,23.7140443967,0.00369978347202341,-20.8871992631085,0.072494402933352,-0.0341072210754216,-0.243362157050545,4.10064197296876,-0.841704125465672,0.235278882777963,0.0949805383788724,0.0767503456377757,0.00591830109986543,-0.0199843128581555,0.634949507137257,0.0558941038977977,0.690843611035055
182.774999999842,69100,-0.327728739226882,1.16518940278832,5.46266534804888,4.3983,1405,1616,1480,1536,0.139019907389521,0.0229145015408828,-0.0435162809778947,-0.0757958300555152,-0.442944172398385,-9.15449516576371,23.9194688611013,-0.0381671546785482,-20.875744116932,0.0796323476756792,-0.0330506575092004,-0.245600385735804,4.11573242672988,-0.833192453274352,0.227126767645507,0.0953235164362208,0.0767503456377757,0.00571886629948127,-0.0203325535300908,0.630634210476934,0.0559289371626181,0.686563147639552
182.822499999842,69120,-0.339412540319138,1.18538008378334,5.44259622466774,4.4762,1405,1617,1480,1535,0.130330646827881,0.0239372053348193,-0.0370088589561888,-0.172812180345153,-0.335806057250413,-10.055302434494,24.1256747907992,-0.0795727143586954,-20.8645143186988,0.0864301670947636,-0.0316455427256336,-0.247518020648185,4.1324701439414,-0.821680013790547,0.219116118246839,0.09497331023322,0.0781097006377757,0.00592274862854114,-0.0206848809134539,0.640720860931876,0.0569669819669323,0.697687842898809
182.874999999842,69140,-0.327988991992271,1.20533086328198,5.46224190037073,4.3983,1404,1617,1480,1536,0.122803904419216,0.0169441435479682,-0.0289533105886027,0.0137917656896159,-0.344961714467186,-10.3178985436313,24.3326645368045,-0.120352626983947,-20.8535407509043,0.0927443552124153,-0.0304406712339261,-0.249040207992237,4.14787984588325,-0.808883064809809,0.218784396775082,0.095316127274237,0.0767503456377757,0.00572340771023731,-0.0210330220157052,0.638309794090528,0.0559966476799565,0.694306441770484
182.922499999842,69160,-0.351359939744022,1.24558613265718,5.48158268140468,4.3983,1403,1618,1479,1536,0.13032154291017,0.00679723571945669,-0.0231843247452924,-0.0683728279374036,-0.538650869027266,-9.25191365350122,24.5404716198453,-0.160321911451885,-20.8430022320815,0.0991079502630056,-0.0297547709060782,-0.250290116905999,4.16380768572221,-0.790264428579077,0.206962029319743,0.0956536239032796,0.0767503456377757,0.00613123074850537,-0.0217354764663024,0.633287612049265,0.0560367377068933,0.689324349756158
182.974999999842,69180,-0.328258378432275,1.24546828292518,5.4618041076265,4.3983,1403,1618,1480,1536,0.138490361180443,-0.00256914029162588,-0.0165440542017074,-0.175009477640464,-0.408831154063539,-10.2483968674977,24.7491091449922,-0.19934051489985,-20.8328233346488,0.105755595673569,-0.0295807727382682,-0.251272634330018,4.18175182910717,-0.769005318822852,0.197164662687239,0.0953084877908503,0.0767503456377757,0.00572810850361537,-0.021733419988479,0.641857562858162,0.0560808493496494,0.697938412207812
183.024999999842,69200,-0.328258378432275,1.24546828292518,5.4618041076265,4.4762,1403,1618,1480,1535,0.156634161181614,0.00380981544708222,-0.00535669602448563,0.0199591835871883,-0.467497875381545,-10.3332291881714,24.9585974994597,-0.237260931638934,-20.8229289320267,0.113215628795587,-0.0295392414245891,-0.251825362917196,4.19859993493843,-0.747398266277664,0.198242877400058,0.0953084877908503,0.0781097006377757,0.00572810850361537,-0.021733419988479,0.641958248888286,0.0570104050480148,0.698968653936301
183.074999999842,69220,-0.35136030167848,1.24558644650181,5.48158260957598,4.3983,1403,1618,1479,1536,0.154849589734667,0.0179847847893866,0.00274009848673298,-0.0637088083785698,-0.661959224859394,-9.21608136667717,25.168986077044,-0.273919658244917,-20.8132927470848,0.121134299838097,-0.0289994034505472,-0.251828185774344,4.21641050478977,-0.719228945026324,0.190762041418061,0.0956536226498688,0.0767503456377757,0.00613123706426167,-0.0217354819428913,0.634229162484075,0.0561527386088147,0.69038190109289
183.122499999842,69240,-0.351637944701361,1.28572418702692,5.48113038329358,4.3983,1402,1619,1479,1536,0.145153549346204,0.0170325630083706,0.0108723946563825,-0.169193891266614,-0.537962639020159,-10.2632930773246,25.3803049465279,-0.309128621048774,-20.8038958174499,0.12858776876722,-0.0280611048156515,-0.251365680668941,4.2363993768545,-0.687413967443366,0.181775699991022,0.0956457313012408,0.0767503456377757,0.00613608193501093,-0.0224358855150543,0.645168394763707,0.0561998773970351,0.701368272160742
183.174999999842,69260,-0.339947224019708,1.26552639437221,5.50121307122886,4.3983,1402,1618,1479,1536,0.139297363473637,0.0138952906709195,0.0196181615256655,0.0292249172947163,-0.575136993042732,-10.3384832480363,25.5925779069745,-0.342682146260143,-20.794833820012,0.13563615159425,-0.0273762320106184,-0.250504758550637,4.25528121061336,-0.654266626925654,0.180156218780659,0.0959961742057114,0.0767503456377757,0.0059320788591161,-0.0220834340332298,0.645308798466534,0.0562403757001988,0.701549174166733
183.224999999841,69280,-0.339947224019708,1.26552639437221,5.50121307122886,4.3983,1402,1618,1479,1536,0.142966996162836,0.0112328775068996,0.0285058409207787,-0.0552763617853274,-0.790213606365559,-9.25903874897886,25.8058413426695,-0.374407436879009,-20.7861719224701,0.142679519934504,-0.0269519618952469,-0.249237290834662,4.27463942123418,-0.615248096191829,0.170284022304369,0.0959961742057114,0.0767503456377757,0.0059320788591161,-0.0220834340332298,0.637400896804684,0.0562855906163256,0.693686487421009
183.274999999841,69300,-0.339947224019708,1.26552639437221,5.50121307122886,4.3983,1402,1618,1479,1536,0.144951807689318,0.00901405282397396,0.0380243987566393,-0.154402038813341,-0.674551278160465,-10.3526082618267,26.020104507142,-0.404166655109015,-20.7777823884933,0.149784892141472,-0.0267005804775608,-0.247517376356206,4.29600588959912,-0.573372440879605,0.16163803193312,0.0959961742057114,0.0767503456377757,0.0059320788591161,-0.0220834340332298,0.647885268477411,0.0563344724749677,0.704219740952378
183.324999999841,69320,-0.305153556835821,1.24521327766938,5.5015104604714,4.3983,1402,1617,1480,1536,0.151872095686233,0.0119711687425457,0.0487510998726702,0.0424211825692659,-0.728509948822909,-10.2971811532453,26.235392728456,-0.431779770035648,-20.7696759459511,0.157056092372601,-0.0265505841932694,-0.245302002892964,4.31621077904796,-0.530820384987219,0.162996301853897,0.0960013636479937,0.0767503456377757,0.00532492936675727,-0.0217289701467654,0.646150458907239,0.0563757160773062,0.702526174984545
