t,frame,xb,xa,xc,xp,pwm1,pwm2,pwm3,pwm4,p,q,r,accx,accy,accz,x,y,z,roll,pitch,yaw,vx,vy,vz,theta1,theta2,b1s1,a1s1,pwr1,pwr2,pwrsum
65.3949999999487,23420,-0.0231531886644713,0.0401055943262266,-0.0396938097994294,6.0342,1521,1676,1581,1515,1.22415116428432E-08,7.2317407979438E-09,5.44039873281708E-11,0.00118278920949496,0.102942025062456,-9.80610959640404,-0.00514241087778309,-0.0182045894799897,-0.364474030579224,-0.0104973564737386,0.000120607701859915,-0.117555107497326,-2.54989053445947E-09,2.72656326145085E-09,-1.79023399369436E-11,0.0628200061127679,0.0523500106377757,-2.00027821328774E-10,1.54856534329006E-09,0.458047475759948,0.0407515714075482,0.498799047167497
65.4824999999486,23440,-0.0463095455841647,0.0802158435430795,-0.019854166519461,6.0342,1520,1677,1580,1515,1.14617981297088E-08,6.2251871816779E-09,2.60942998586392E-11,0.00118278899683866,0.102942001852791,-9.80610955695689,-0.00514241110226548,-0.0182045892228795,-0.364474030578843,-0.0104973564737386,0.000120607701859915,-0.117555107497326,-2.63128576492836E-09,2.71602536015501E-09,-4.8705066408247E-11,0.0628200061127679,0.0523500106377757,-2.00027821328774E-10,1.54856534329006E-09,0.45804747588825,0.040751571407398,0.498799047295648
65.5599999999485,23460,-0.0463095455841647,0.0802158435430795,-0.019854166519461,6.0342,1520,1677,1580,1515,6.29601375093666E-09,8.43341552720376E-09,3.25132479735627E-11,0.00118272646104225,0.102941993473131,-9.80610960764418,-0.00514241129975126,-0.0182045889955916,-0.364474030578447,-0.0104973564737386,0.000120607701859915,-0.117555107497326,-2.58306005199748E-09,3.13890397429915E-09,-4.54236363786735E-11,0.0628200061127679,0.0523500106377757,-2.00027821328774E-10,1.54856534329006E-09,0.458047476051359,0.0407515714083211,0.49879904745968
65.6299999999484,23480,-0.0463095455841647,0.0802158435430795,-0.019854166519461,5.9563,1520,1677,1580,1516,1.01009728205386E-08,5.67165011835594E-09,4.07003802932347E-11,0.00118278039343492,0.102941979602622,-9.80610959410718,-0.00514241148058749,-0.0182045887898538,-0.364474030579067,-0.0104973564737386,0.000120607701859915,-0.117555107497326,-2.69394164592482E-09,2.78091165300648E-09,-4.92716080860185E-11,0.0628200061127679,0.0523500106377757,-2.00027821328774E-10,1.54856534329006E-09,0.458047476065575,0.0407515714072521,0.498799047472827
65.7124999999484,23500,-0.0463095455841647,0.0802158435430795,-0.019854166519461,5.9563,1520,1677,1580,1516,6.35760271983763E-09,7.31140807539873E-09,4.57396608954509E-11,0.00118273460132648,0.102941972106698,-9.80610959277435,-0.00514241169128497,-0.0182045885479102,-0.364474030576952,-0.010497356465405,0.000120607701859915,-0.117555107497326,-2.65744093540186E-09,3.07649068809511E-09,-2.57241687004013E-10,0.0628200061127679,0.0523500106377757,-2.00027821328774E-10,1.54856534329006E-09,0.458047477297127,0.040751571408057,0.498799048705184
65.7899999999483,23520,-0.0463095455841647,0.0802158435430795,-0.019854166519461,5.9563,1520,1677,1580,1516,1.12663790280701E-08,9.45143478468771E-09,4.81138947737795E-11,0.00118276566010941,0.102942055419844,-9.80610959414886,-0.0051424118911162,-0.0182045883226131,-0.364474030578626,-0.010497356465405,0.000120607701859915,-0.117555107497326,-2.42372040610553E-09,2.87927092243892E-09,6.72770554873047E-11,0.0628200061127679,0.0523500106377757,-2.00027821328774E-10,1.54856534329006E-09,0.458047475162003,0.0407515714082483,0.498799046570251
65.8874999999482,23540,-0.034766371210426,0.0602174678190689,0.476539039930277,5.9563,1512,1668,1572,1516,6.94528737685646E-09,9.41403906036939E-09,8.43131393768047E-11,0.00118272647507653,0.102942014227263,-9.80610952843312,-0.00514241214039579,-0.018204588036007,-0.364474030575917,-0.010497356465405,0.000120607701859915,-0.117555107497326,-2.50225324690002E-09,3.14575501629368E-09,-1.91762290450364E-10,0.0628200061127679,0.0523500106377757,-2.00027821328774E-10,1.54856534329006E-09,0.458047476152027,0.0407515714085252,0.498799047560552
65.9874999999481,23560,-0.0232067367507385,0.0803640413094353,1.09263439757153,5.2552,1501,1658,1562,1525,-0.000991797438189628,-0.0015441030899691,0.0755366299100056,-0.236054464502019,0.256845938769388,-9.83219100983647,-0.00532622873233816,-0.0188994883348887,-0.363832470134825,-0.0111685694903046,-0.000219765187391852,-0.110830268928258,-0.00488823998331883,-0.0201789133749124,0.00508849472750199,0.0187194032874013,0.0917032506377757,0.000607379435089421,-0.00175293133120203,0.325092572195614,0.0638720068414,0.388964579037014
66.067499999948,23580,-0.0348399362373288,0.100533355538994,1.78880304522323,5.1773,1489,1647,1550,1526,-0.0052158285188468,-0.00697481886143484,0.0761072360425682,-0.0469528753112216,-0.291148382060979,-9.81432936748933,-0.00585099015064647,-0.0201774115765081,-0.363537833334092,-0.0122046158951139,-0.000518891568223158,-0.104941251071929,-0.00819849785331786,-0.0146002015245604,0.00247664340719579,0.0298258590618472,0.0917032506377757,0.000202872081234918,-0.00175408770996002,0.368582636941623,0.0635531657991213,0.432135802740745
66.162499999948,23600,-0.0232575542595163,0.120687014572461,2.52517397334908,5.0215,1476,1635,1538,1528,-0.00340155013117636,-0.00218303831558313,0.0734925938883891,0.0316396574366685,0.41050393742193,-9.78687705289724,-0.00674569542033134,-0.021502222386435,-0.363399963520631,-0.01309709850493,-0.000803325552844611,-0.0978438520014557,-0.00862178075588474,-0.0147903198634235,0.000726899875413981,0.0430222537943329,0.0876251856377756,0.000405826656593822,-0.00210594587120671,0.389696040683504,0.0604102324175024,0.450106273101006
66.2599999999479,23620,-0.0232671664529778,0.120689582107319,3.2417994802702,4.8657,1464,1623,1526,1530,-0.0139496426967426,-0.00155351216336875,0.0622493389509329,-0.0283393653893836,0.466040901242224,-9.78516790204617,-0.00754512746270359,-0.0227239271686382,-0.363400252193543,-0.0139119853280183,-0.0010572232171676,-0.091191728611227,-0.00723984840431482,-0.0104093963390131,-0.000846186835685182,0.0562217414742568,0.0849064756377757,0.000608781949819932,-0.00245715112875116,0.428839244324981,0.0584497086746092,0.48728895299959
66.3774999999478,23640,-0.0116735288757797,0.140743043646055,3.97817096321746,4.7099,1451,1611,1514,1532,-0.00995348578423169,-0.000965627733184321,0.0474102590345175,-0.0138431489353104,0.480230784211395,-9.78603176775171,-0.00830448627134711,-0.0239405000153714,-0.363590531361495,-0.0147142230401566,-0.00137286877536859,-0.0846732371464711,-0.00499239013413218,-0.00746875279564225,-0.00209878180619227,0.0690721792038583,0.0821877656377757,0.000406035884454647,-0.00210525463598658,0.479185782460415,0.0565604776246611,0.535746260085076
66.4649999999477,23660,-0.0116772574736004,0.140617341902136,4.75386106407414,4.632,1438,1598,1501,1533,-0.00247087233390638,-0.00107560189231691,0.035790247668487,0.0002307648681108,0.0110143511141582,-9.81230524449305,-0.00870162055045743,-0.0246864841702726,-0.363836999371428,-0.0151664911984186,-0.00161997238149131,-0.0810971493026934,-0.00373866085865058,-0.00888437654837668,-0.00374896166282672,0.0819141383317139,0.0808284106377757,0.000203764607982896,-0.00245398012170323,0.555876672927044,0.0556406688620937,0.611517341789138
66.5699999999476,23680,0.0114855281280258,0.140407493100015,5.50880534983306,4.4762,1425,1585,1489,1535,-0.0240326197221685,-0.0121960402902478,0.0246500439592057,-0.00312253948042429,0.00458673590727701,-9.92083529743,-0.00897408810106605,-0.0256279852320645,-0.364392828697468,-0.0161941470892198,-0.00222456852142838,-0.0778026487627688,-0.000539577728978267,-0.0108698931654602,-0.00847318769697863,0.0954357869384431,0.0781097006377757,0.000203747667763568,-0.00245064475423198,0.625478393524033,0.0538207393595986,0.679299132883632
66.6974999999475,23700,0.0461098795601327,0.160118111213691,6.28229963171098,4.7878,1411,1572,1477,1531,0.0260739544053866,-0.0352453185993486,-0.0474843835985112,-0.0160729121182965,-0.529189837094887,-10.4078047730319,-0.00894883098161435,-0.0308572808246468,-0.365874890833784,-0.0163451965091601,-0.00487082757636415,-0.0785992947966812,-3.24254798580462E-06,-0.0798729984120028,-0.0242975144766527,0.109281010970167,0.0821877656377757,-0.000603252285910703,-0.00244512857183759,0.706080651164963,0.056605746143563,0.762686397308526
66.7974999999474,23720,0.0575414696509642,0.139757931802192,7.0146204347282,5.2552,1399,1559,1465,1525,0.0742733462797251,0.00704046423934607,-0.122430632443318,0.0229556538353625,-0.654408378244497,-11.5968120784118,-0.00895174396996003,-0.0425332363367922,-0.37445988692015,-0.0100988457999323,-0.00671435787985689,-0.0870299840055461,0.000169118658510187,-0.154001021937618,-0.166760090084938,0.121714423271831,0.0917032506377757,-0.0012052164126311,-0.00278733064940163,0.802219336713821,0.0637715813105525,0.865990918024374
66.8999999999473,23740,0.0573312566683035,0.219267679690389,7.42924274484161,6.0342,1390,1554,1458,1515,0.0338726540463487,0.0233588299592071,-0.172746650792777,0.0390094136798597,-0.729718592113633,-12.1333735761489,-0.00895436860644462,-0.0623477929562586,-0.402367071596662,-0.00398595790225786,-0.00419874598630097,-0.102557798484725,-0.000966100888003938,-0.233602699789215,-0.386316372194832,0.129296928422525,0.103937445637776,-0.000800084747960792,-0.00347897291214548,0.873873432476467,0.0742564683806294,0.948129900857096
66.9924999999472,23760,0.0917813122721522,0.238958424032186,7.60671167322018,6.4237,1386,1551,1456,1510,0.0508121274856935,-0.0103981623983207,-0.183899665277151,0.0191359689092645,-0.827828956956485,-12.1364468406854,-0.00927528682379813,-0.0874766958920352,-0.448322621013867,-0.000338875819769455,-0.00376132812806654,-0.119167660558268,-0.00602592864160483,-0.309658137134186,-0.606386669611724,0.13273712481046,0.112093575637776,-0.00160158409917688,-0.00416982295079631,0.911061929567719,0.0822066231690001,0.993268552736719
67.0774999999471,23780,0.114674277390043,0.278612258761255,7.70513314787831,6.7353,1383,1550,1455,1506,0.113245093843671,-0.00504320965494401,-0.170236061017145,0.0685669814771308,-0.928211045278996,-11.9529846502226,-0.0100343242280139,-0.116802335460136,-0.508328266592631,0.00669480218624306,-0.0049428569921829,-0.134348477598156,-0.0114497184437782,-0.379827203158166,-0.802943772171011,0.134454579543244,0.117530995637776,-0.00200106634048406,-0.00486178236681856,0.929965302522254,0.0876633805081456,1.0176286830304
67.1599999999471,23800,0.103068037112589,0.29840896356419,7.80361866525907,6.969,1381,1549,1453,1503,0.114547998024239,0.0319494985324881,-0.139946433629292,0.123142306315139,-1.04681642034289,-11.8026322470301,-0.0112157143260105,-0.150769414349098,-0.582036879350967,0.0165081535236131,-0.0036061085320061,-0.147219011001699,-0.0173789979343258,-0.442808990400064,-0.982203504204243,0.135828664273943,0.121609060637776,-0.00220029233697309,-0.00520672363307579,0.943375955622747,0.0918767179673464,1.03525267359009
67.247499999947,23820,0.114400730596443,0.35802037587005,7.82304504746713,7.0469,1379,1550,1453,1502,0.0900573129753817,0.0278243372262902,-0.0989455019124742,0.102954397540799,-1.06237274696492,-11.5991508467298,-0.0130655488536339,-0.192110258599916,-0.675835741313664,0.0253288478836554,-0.000332794297501617,-0.157633348310726,-0.0257655573585078,-0.500891906006255,-1.15774955350556,0.136512142191069,0.122968415637776,-0.00199629294893573,-0.00624745401036702,0.947702567741793,0.0931914468115661,1.04089401455336
67.3349999999469,23840,0.125701488394085,0.417606652505333,7.84241865968124,7.1248,1377,1551,1453,1501,0.116616621397947,-0.00574968099850131,-0.0527583214283804,0.0143765959199451,-1.13192387748908,-11.3957410108449,-0.0157366547245705,-0.238181312858115,-0.784091436700799,0.0337921333467348,0.000711665596871316,-0.164245693903814,-0.0358684061286582,-0.550761510040704,-1.31357308097734,0.136850211724206,0.124327770637776,-0.00219349117250458,-0.00728723453765271,0.950087476928532,0.0945348922396603,1.04462236916819
67.4174999999468,23860,0.125739997130006,0.417718280948436,7.78331213510939,7.0469,1378,1552,1454,1502,0.152144959318633,0.0157604224120281,-0.0154600050492364,-0.0525356081006479,-1.11329183183361,-11.1139753908349,-0.0190198920002109,-0.285211987909405,-0.897774282430945,0.045163960644585,0.000807765615085579,-0.167027627998522,-0.0437634091817366,-0.587179176600497,-1.43872983057384,0.136164142551285,0.122968415637776,-0.00239589809305675,-0.00694085532278437,0.94104902044701,0.0927870903207093,1.03383611076772
67.5124999999467,23880,0.114211078633162,0.437801465077059,7.70438771468335,6.8911,1379,1554,1455,1504,0.133863724530224,0.0350807683534011,0.0206562368132394,-0.00257605891103822,-1.12051819876143,-10.7244384901116,-0.0235707947883605,-0.342454448220954,-1.04030224672169,0.0589933801178308,0.00340258122194442,-0.166501170742414,-0.0522527939514599,-0.614452740391009,-1.55596508220902,0.134441571733992,0.120249705637776,-0.00199298352217649,-0.00763963401702934,0.918809155265349,0.0895599774111409,1.00836913267649
67.6049999999466,23900,0.0910967446428763,0.477887822466218,7.60560963997906,6.7353,1380,1557,1456,1506,0.125948075374132,0.00721414617471695,0.0468945339685782,-0.0234961448470197,-1.08624821046964,-10.4679835333968,-0.0287452191939615,-0.399952801105915,-1.18825701206365,0.0703866177209703,0.00517226849246876,-0.163185203144087,-0.0601519578718007,-0.626424030889678,-1.63843663559329,0.133063792148885,0.117530995637776,-0.0017916477117712,-0.0079903277898265,0.901770227541271,0.0864786815352645,0.988248909076536
67.7074999999465,23920,0.0797211729890702,0.458286390741327,7.4676693143722,6.5795,1383,1559,1458,1508,0.151414566442532,0.00113880257482208,0.064303359184535,-0.0349363610870912,-0.952535964746395,-10.0597991397542,-0.0352290236893443,-0.46420188035919,-1.35949422891878,0.0845352356365233,0.00464040812017945,-0.157390564393164,-0.0657684553861097,-0.624576234143421,-1.69724121499249,0.130652810560708,0.114812285637776,-0.00159067940060917,-0.00834330392674927,0.879497099048984,0.0835553697468369,0.963052468795821
67.8274999999464,23940,0.0336937942304836,0.458703770578614,7.32955732787126,6.3458,1386,1562,1459,1511,0.129365802342614,0.0108739927037002,0.0700758236291427,-0.0249412351567844,-0.881749926327016,-9.76512845635684,-0.0433766356469362,-0.537950300136412,-1.56542663808173,0.101788533290797,0.00501441583012353,-0.149102356059371,-0.0688601934057504,-0.601194015779871,-1.72814374519616,0.128247054728135,0.110734220637776,-0.000790083001211279,-0.00765514757249284,0.853660416245954,0.0793810188083504,0.933041435054304
67.9324999999463,23960,0.0106816451318812,0.459061701720257,7.17158798534216,6.19,1389,1565,1461,1513,0.11612592311198,-0.0121568044703564,0.0667599857267199,-0.0845860757519967,-0.964135496186692,-9.45100818849416,-0.0506666493136207,-0.59928605579674,-1.74672252865685,0.114269787240587,0.00441013462794739,-0.141910649493555,-0.0695978974279967,-0.5652491828497,-1.71932458496856,0.125144216456989,0.108015510637776,-0.000186394907579133,-0.00801062514645315,0.824117182609503,0.0767771495060339,0.900894332115537
68.0324999999463,23980,-0.0122268377291127,0.419461961810714,7.01372457066906,6.1121,1393,1567,1463,1514,0.123652381619128,-0.0175217175247082,0.0684327842765428,-0.0187534771277369,-0.872309748895613,-9.14307800920817,-0.0574808162138462,-0.653767109131785,-1.91689107046934,0.126301888125918,0.00182197331609602,-0.135425270547546,-0.0661927080791362,-0.522974728179541,-1.68032838166801,0.122389499870943,0.106656155637776,0.000213358118345213,-0.00731960968503161,0.803476246363969,0.075519590573588,0.878995836937557
68.1274999999462,24000,-0.0582389276564632,0.379825714903406,6.87550398783981,5.8784,1397,1569,1464,1517,0.103704013451904,-0.0120400790784819,0.0622971919197028,-0.0526141139473293,-0.780177344560375,-9.00412395041952,-0.063487026778337,-0.701091241087108,-2.07394912781384,0.137415359277713,-0.000237538656098215,-0.129391756102667,-0.0594035041647232,-0.472081474559244,-1.62384570265889,0.120322340911211,0.103937445637776,0.00141861396247421,-0.00662859958111118,0.786431483984792,0.0730635021020138,0.859494986086806
68.2174999999461,24020,-0.104278715589882,0.340047626606217,6.79651623156354,5.8005,1400,1570,1464,1518,0.0802651252427354,-0.022499419357978,0.0524847865154828,-0.0588666728514941,-0.730927623878374,-8.9193398512033,-0.0684820410143236,-0.741145145410726,-2.21701204623544,0.145858423189246,-0.00234312343813697,-0.124459033319072,-0.0506581109669223,-0.417122398126566,-1.55416150897106,0.118599214353552,0.101218735637776,0.00181966338701563,-0.00593382953571314,0.771496378816246,0.0707239680246908,0.842220346840937
68.314999999946,24040,-0.104207084350581,0.300102097201335,6.73731006719723,5.7226,1402,1570,1465,1519,0.0811198207013077,-0.036910593934465,0.0409137687902348,-0.107964955453592,-0.777464242887897,-8.91762724749138,-0.0728516202394229,-0.778665887245376,-2.36464589346525,0.153476734530932,-0.00607007343535984,-0.120382821505002,-0.0381480736886806,-0.351331034490065,-1.47308462936271,0.117566066785359,0.0998593806377757,0.00181841342188984,-0.00523678004759795,0.762901793235709,0.0696784322396288,0.832580225475338
68.3899999999459,24060,-0.127144345867329,0.220140841635898,6.69793853427072,5.7226,1405,1569,1465,1519,0.073249361136802,-0.0218202515034174,0.0322496419973304,0.00232295113993913,-0.763115885014395,-8.8790514617961,-0.0752616533610159,-0.80301192183616,-2.47275345156108,0.159570091872329,-0.00869278450950067,-0.118036213392759,-0.0256843204552044,-0.297361693860239,-1.40963851981802,0.116879033535792,0.0998593806377757,0.00221866863535707,-0.00384145613798107,0.759361136006584,0.0697888559147716,0.829149991921356
68.4799999999458,24080,-0.161711676370117,0.200176257164419,6.69792993085061,5.6447,1406,1569,1464,1520,0.031763785108504,-0.0208956682364342,0.0191128424640357,0.0135280005605085,-0.692626218155701,-8.99914330777411,-0.0768098717124928,-0.826649569753528,-2.59607416166987,0.16453283415293,-0.0106570874962755,-0.116015125736075,-0.00824649647426923,-0.227361404209416,-1.33232562417485,0.116878883406111,0.0985000256377757,0.00282186855263073,-0.00349307413895378,0.759344572028281,0.0687757577923097,0.82812032982059
68.5774999999458,24100,-0.138569175827953,0.120095008327658,6.67832069094978,5.6447,1408,1567,1465,1520,0.034130140918901,-0.0403592550812449,0.00833026092491002,-0.0490659005070579,-0.703074387113054,-9.019146399059,-0.0765994714388046,-0.844991381560537,-2.72208085074489,0.167341204497014,-0.0142806770872176,-0.115303029744943,0.0131896046636992,-0.148827262776095,-1.2529520724056,0.116536702169842,0.0985000256377757,0.00241803191816997,-0.00209565634675228,0.757927387078576,0.0689752083037057,0.826902595382281
68.6674999999457,24120,-0.138525553527979,0.0400318360690815,6.67839116049094,5.7226,1410,1565,1465,1519,0.0214909907472278,-0.0196933428946719,0.00317649335032585,-0.0225563322454334,-0.726377033119215,-9.07750902247807,-0.0744148155602818,-0.855093180795137,-2.83174984453868,0.1700838567024,-0.0170369356986197,-0.115334595277946,0.0358901034048172,-0.0756387097918224,-1.18467465242382,0.116537931863335,0.0998593806377757,0.00241727070903542,-0.000698553990840144,0.761121676310386,0.0703159182427598,0.831437594553146
68.7699999999456,24140,-0.1385263952124,-0.0400318654774951,6.6783904318491,5.7226,1412,1563,1465,1519,-0.019119510797912,-0.0136571524652243,-0.000470965863183878,0.00936824452093205,-0.716370264999646,-9.1317510144722,-0.0693285034313698,-0.858526688466402,-2.94943771844282,0.170158059574999,-0.0183945731286381,-0.115465811159443,0.0636178514400629,0.00857629709236951,-1.11362319477175,0.116537919148535,0.0998593806377757,0.00241728539642856,0.00069855760114763,0.762654475794628,0.070508376741624,0.833162852536252
68.8824999999455,24160,-0.115486819700663,-0.120061257161025,6.71793031102134,5.6447,1413,1560,1465,1520,-0.0323313421215666,-0.0256574445619128,-0.00153861560765067,-0.0136218563332326,-0.716748719284601,-9.26483666423709,-0.0603881135382494,-0.852485585548324,-3.07070207285053,0.166800031307507,-0.0208255173325877,-0.115905055670252,0.095611181210822,0.0984930373716716,-1.04434744101895,0.11722789004009,0.0985000256377757,0.00201524480374874,0.00209507048602522,0.767202847835649,0.0695187362229297,0.836721584058579
68.9974999999454,24180,-0.115574788846583,-0.200099755379368,6.71778822843871,5.6447,1415,1558,1465,1520,-0.0460481703551409,-0.00400966691820182,-0.00340629327573713,-0.00855162873951967,-0.726482437912054,-9.29117734461298,-0.0473863658995978,-0.836056309953882,-3.18731653710925,0.162818183408974,-0.0226154796257698,-0.116516877178897,0.130560265034647,0.186404581016199,-0.984988712074118,0.117225410699023,0.0985000256377757,0.00201677986534506,0.00349174227993533,0.768590123602055,0.0697042908461767,0.838294414448232
69.0949999999453,24200,-0.0695615616903169,-0.280028615377172,6.73740707587952,5.6447,1416,1555,1466,1520,-0.0773065153441535,0.00114137399326811,-0.00114242041037475,0.0370198505859941,-0.70282263466168,-9.35939283507401,-0.0332026312907171,-0.814493194879085,-3.28116127515753,0.156498628966144,-0.0225675076865625,-0.116684168866422,0.160065063691586,0.255011453215237,-0.940956272788436,0.117567759586866,0.0985000256377757,0.00121384905146822,0.004886500886897,0.772533841209368,0.0698490079350036,0.842382849144372
69.2224999999452,24220,-0.0927114497975178,-0.320060587353976,6.75703806531621,5.6447,1417,1554,1465,1520,-0.104655837904977,-0.00201151197669421,0.00130850617558782,0.0170613778088516,-0.645333272039065,-9.41941046201219,-0.0104162095577766,-0.776754165481241,-3.3979931639556,0.145051422757498,-0.0222867172749587,-0.116657873298399,0.197238590183379,0.334413987526075,-0.893215363164287,0.117910320352536,0.0985000256377757,0.00161781459893887,0.00558505879789222,0.775778081985245,0.0700246779559796,0.845802759941225
69.3324999999451,24240,-0.0351762064157983,-0.379864562653772,6.79640153037112,5.5668,1417,1551,1466,1521,-0.0982452561050143,-0.00428965548681738,0.00420018670345507,0.033404994832582,-0.73586717862215,-9.5476282251779,0.0129616335241103,-0.736759061712819,-3.49450693874559,0.133342696053865,-0.0231531261748931,-0.11647557813556,0.22764600385282,0.390417540677147,-0.863169835402895,0.118597212817744,0.0985000256377757,0.000613824601927856,0.00662863816687368,0.783214294615504,0.0701484675825527,0.853362762198057
69.449999999945,24260,-0.0238128075903594,-0.43977067392467,6.81590434856186,5.5668,1418,1549,1466,1521,-0.116166903242196,0.0333008217003947,0.00110991400790951,0.0482033984535555,-0.737064520697606,-9.53787366262609,0.041592374374696,-0.687896237334796,-3.59455654192485,0.121602340008917,-0.0213718036413052,-0.11605391332221,0.258501564450947,0.438358736723846,-0.839116532760324,0.118592383881499,0.0971406706377757,1.28358603673045E-05,0.00767325945227434,0.78246258234493,0.0690678536249648,0.851530435969894
69.5424999999449,24280,0.0338092652397136,-0.45950720733246,6.85534336769591,5.5668,1417,1547,1467,1521,-0.149293304627391,0.0273762873481307,-0.0034549727622913,0.0636670795759395,-0.69529019728668,-9.68710283229065,0.0665021956786545,-0.645981727123062,-3.67155206835357,0.109040214112675,-0.0182393675070718,-0.115790382585568,0.278932465577718,0.465840768386378,-0.827137969413717,0.119625747879062,0.0971406706377757,-0.000589971878460807,0.00801840231651677,0.790500080396411,0.0691538892832686,0.85965396967968
69.6299999999448,24300,0.0798297377367124,-0.499259140296172,6.87485800382122,5.5668,1417,1545,1468,1521,-0.129255638389072,0.0212429812812637,-0.00479239623654704,0.0363178353782736,-0.740452472352111,-9.68330635723623,0.0916273889015952,-0.604447021233036,-3.74367099685181,0.0967722130292306,-0.0164831733750519,-0.116017124763684,0.294364881687936,0.48118392378829,-0.821555720845127,0.119623400189411,0.0971406706377757,-0.00119297303168611,0.00836491667329839,0.790976929775235,0.0691519388792297,0.860128868654464
69.7349999999447,24320,0.114531975048459,-0.47917279776767,6.87492708020226,5.6447,1416,1545,1469,1520,-0.120295653425299,0.046299715882673,-0.00523222928114675,-0.0199483026279896,-0.66145829181012,-9.68665245989805,0.123370121635966,-0.553489855897683,-3.82989399482376,0.084064911905549,-0.0129324261341852,-0.116323673241567,0.309231214263529,0.487140962220603,-0.820790376780929,0.119967483662297,0.0985000256377757,-0.00199858316462344,0.00836156686961118,0.793627396007144,0.0704116459449641,0.864039041952108
69.8649999999446,24340,0.126135337879155,-0.459139783745741,6.89479286240877,5.6447,1415,1545,1469,1520,-0.146463348843038,0.0495362213958925,-0.00777969352800132,-0.00456280172724809,-0.748058212101123,-9.73702454991226,0.164204367104913,-0.490591878820288,-3.93686884114918,0.06676545995218,-0.00583401174983938,-0.116753408282643,0.316953079298063,0.4770556774808,-0.82543118255877,0.120314141561801,0.0985000256377757,-0.00220106184601905,0.00801199077492853,0.798536244030368,0.0704206642126126,0.868956908242981
69.9924999999445,24360,0.160840680402651,-0.439070668205313,6.89483528099307,5.6447,1414,1545,1470,1520,-0.110120310577566,0.043228838817935,-0.00753266315052793,0.068835799531655,-0.735581928500873,-9.77782783283036,0.204582720317237,-0.431548840871414,-4.04255967944957,0.0502666831979336,-0.000973917782996191,-0.117449777108533,0.314625725797072,0.445694211264353,-0.831600922110514,0.120314881766097,0.0985000256377757,-0.0028066700730541,0.00766178470874806,0.79732636569562,0.0703866617231464,0.867713027418766
70.1324999999443,24380,0.172595170636029,-0.379226648076019,6.85555067662532,5.6447,1413,1547,1471,1520,-0.110793339183023,0.0643739335512343,-0.00765005094222965,-0.0147200253549844,-0.750868877736271,-9.71651989490466,0.247843020395571,-0.372612410262797,-4.15922878115746,0.0355596390902933,0.00689908190950633,-0.118183639372951,0.300830671764793,0.393282519893736,-0.833481935135052,0.119972420123034,0.0985000256377757,-0.00321212810967681,0.00696468441024595,0.795017460551648,0.0702996698900232,0.865317130441671
70.2199999999443,24400,0.230530256292539,-0.319244014705097,6.83588187596097,5.6447,1411,1548,1473,1520,-0.0960136653703073,0.0458314070886745,-0.00716650643654217,-0.0424785057141075,-0.733492725286115,-9.65260654220941,0.27353820329439,-0.340001721941369,-4.23203338698093,0.0259680393804952,0.0116371766402109,-0.118695503763392,0.285359465107242,0.35135508875084,-0.829421783623899,0.119286144848287,0.0985000256377757,-0.0040227531723326,0.00557080960516929,0.789352264210805,0.0702351154092301,0.859587379620036
70.3024999999442,24420,0.230618350239475,-0.279340707066809,6.83602330124213,5.6447,1410,1549,1473,1520,-0.0686073244929615,0.0490853528071523,-0.0068121797861664,-0.016215592999572,-0.683647245501738,-9.67827031993617,0.296331056738527,-0.312870966549451,-4.30019027785857,0.0191829623460105,0.0154817993775732,-0.119177824401425,0.266737363370495,0.306022936044658,-0.82303980732909,0.119288612719443,0.0985000256377757,-0.00402429041170665,0.00487449688688116,0.787864368841278,0.0701504108012218,0.858014779642499
70.3899999999441,24440,0.253825511884209,-0.239414507064583,6.81630113557832,5.6447,1409,1550,1474,1520,-0.0556965346192247,0.0660638897021189,-0.00738743549887242,0.0137608360580966,-0.681852961705027,-9.65192257456207,0.318619567408008,-0.288337153238111,-4.3718333384785,0.0140006788479346,0.0206587540350267,-0.119706678778864,0.242326593602676,0.254371762547265,-0.814364007189275,0.118944460928609,0.0985000256377757,-0.00442925538240726,0.00417778469684232,0.7847480292194,0.0700462756559467,0.854794304875347
70.484999999944,24460,0.242372524727734,-0.139651445998895,6.8561146831578,5.6447,1406,1552,1473,1520,-0.0574020629656271,0.0589643907368947,-0.0113083917362507,-0.0220310728556288,-0.702202242215057,-9.75570616536224,0.340131789017915,-0.266943911343444,-4.44893561221466,0.00847109861102999,0.0269058602579594,-0.12049669747104,0.209798992967239,0.195625765649961,-0.809626078055484,0.119639207333871,0.0985000256377757,-0.00422940075652676,0.00243691928124607,0.789961258793646,0.0699424143715945,0.85990367316524
70.5849999999439,24480,0.265563705212477,-0.0598454379006582,6.83636369503676,5.7226,1404,1554,1474,1519,-0.0265651768012997,0.0398687617360275,-0.0131948850067745,0.0176476847688741,-0.760489419746119,-9.75788036304309,0.359141560130875,-0.25066787228948,-4.52974488613221,0.00375472095526441,0.0315394614247038,-0.121767172170633,0.169485776909303,0.129185112307379,-0.806442891307361,0.119640850936717,0.0998593806377757,-0.00423041920561586,0.0010444047551304,0.790668517314494,0.0710141116376409,0.861682628952135
70.6824999999438,24500,0.23090271669977,-1.64564380051574E-07,6.83648240546147,5.7226,1403,1556,1473,1519,0.00683970963816373,0.0538817258213635,-0.0136465020228376,0.0323993822623266,-0.726378544425387,-9.72429885232882,0.373607229310526,-0.241277181607608,-4.60797071880995,0.00339478402915918,0.0356717655481705,-0.123028293134325,0.126620911508546,0.0635283319550483,-0.799119609328023,0.119296624088071,0.0998593806377757,-0.00402925260643881,4.42021377256019E-09,0.787255152491504,0.0708682649689466,0.85812341746045
70.7674999999438,24520,0.230879463119188,0.0798134881188108,6.83644487495075,5.7226,1401,1558,1473,1519,0.00458783975034426,0.045964993490125,-0.0164667569583243,0.0377537492401576,-0.727136790824119,-9.72930095098671,0.382649402118698,-0.238223864755054,-4.67566475510398,0.00383429053441212,0.0400873634118168,-0.124282271788341,0.085660982577667,0.00841741373011066,-0.793535234173603,0.119295969180658,0.0998593806377757,-0.00402884683145764,-0.00139274381910791,0.78664402542946,0.0707524077249241,0.857396433154384
70.8624999999437,24540,0.219289824564869,0.139694604709526,6.81661726988474,5.8005,1400,1560,1473,1518,0.0355037505367519,0.0274895358809234,-0.0149417879008799,0.000753997391623462,-0.728909239256261,-9.68577315896347,0.388481670352895,-0.240277774583936,-4.75067089397075,0.00564230618155625,0.043225327015855,-0.125808222770936,0.0368233826114688,-0.0515270909715763,-0.78532355562439,0.118949977472257,0.101218735637776,-0.00382660763868476,-0.00243766930361589,0.785946642585946,0.0718285256734638,0.857775168259409
70.9574999999436,24560,0.196060942870912,0.219538949944992,6.83628380732855,5.8005,1398,1562,1472,1518,0.0564643400299677,0.0266684545293523,-0.0147379397349216,-0.0320595897399029,-0.749327937082902,-9.74131966317577,0.3895663194116,-0.247858234355373,-4.82500836080955,0.0102771088929799,0.0458033108149154,-0.127192431200563,-0.0139666910505123,-0.106999550587025,-0.778715343959227,0.119293158550651,0.101218735637776,-0.00342126365312522,-0.00383095312797477,0.788373577942436,0.071691778251842,0.860065356194278
71.0824999999435,24580,0.13818423795251,0.279505892126572,6.85600002182442,5.8005,1397,1564,1470,1518,0.0603628351303774,0.0111883512704245,-0.0182607983270138,-0.018920476833834,-0.784395730241555,-9.74577858388444,0.383543659444758,-0.265342198970897,-4.92195711825793,0.0174851379150119,0.0485834724878382,-0.129197252843706,-0.0826174874290896,-0.17077588238743,-0.771819924836599,0.119293488897346,0.101218735637776,-0.00221063463253221,-0.00452969676902052,0.787164699270145,0.0715390398469996,0.858703739117145
71.2824999999433,24600,-0.415557985069413,0.481006348597365,6.85431131507759,5.8784,1400,1577,1454,1517,0.131372240888232,-0.128663736810072,-0.0146335597903857,-0.119844597780479,-0.796810280800479,-9.76876904656001,0.356871150275974,-0.308358287182741,-5.07550724602849,0.0292667414388567,0.0338672626397002,-0.132716891289432,-0.177460818174466,-0.255679357302891,-0.765593899484112,0.119607738560872,0.102578090637776,0.00725148663943344,-0.00839355923445869,0.791392774523981,0.0725807889906729,0.863973563514653
71.3299999999433,24620,-0.507671780705513,0.561387127771333,6.93244546621871,5.8784,1398,1579,1450,1517,0.0945587261121051,-0.138367106673416,-0.0172575850692814,0.0019904668769451,-0.675089535137197,-9.95604974310583,0.347616687125367,-0.321586638899394,-5.11390061943164,0.0347016461348206,0.0273567100089869,-0.1337095136552,-0.191632661204053,-0.272774066732521,-0.771510601642948,0.120971179498284,0.102578090637776,0.00885887237328338,-0.00979620383104443,0.806266565419482,0.0725404106146059,0.878806976034088
71.3824999999432,24640,-0.450145812444703,0.581019150857727,7.03144564720446,5.9563,1395,1577,1450,1516,0.111758539980749,-0.164809262508497,-0.0211924426674737,-0.0219814570935566,-0.861295202356655,-10.0817345489513,0.337726394796922,-0.335569588037791,-5.15279938959815,0.039663199618287,0.0197751913052948,-0.134965749905427,-0.203446758268066,-0.286849690952942,-0.786204293815872,0.122355104714298,0.103937445637776,0.008054693168719,-0.00979063610134816,0.813886198784161,0.0737694918739447,0.887655690658105
71.4324999999432,24660,-0.415425184183003,0.56063405541019,7.15027505803047,5.9563,1393,1574,1449,1516,0.148233136073507,-0.15815516035132,-0.0269526552169616,-0.152247884254895,-0.809744377386482,-10.3655999511872,0.327381553777432,-0.35021381406686,-5.19268753129436,0.0461560676430232,0.0116057453581512,-0.136498448853566,-0.210056684380855,-0.297995344064355,-0.811796892640069,0.1247723058754,0.103937445637776,0.00724916926396558,-0.00978306271834247,0.831556711224115,0.0737511436143467,0.905307854838461
71.4799999999431,24680,-0.357776620060153,0.540207507035716,7.24939997875156,6.0342,1391,1571,1449,1515,0.179505976369389,-0.135259011785281,-0.0336840798670258,-0.00402983482564692,-0.793863517787406,-10.4877880159224,0.316784073412205,-0.365363627099719,-5.23413802562824,0.0542913311122564,0.00425495118666383,-0.138381476328411,-0.212686720850484,-0.307249293684798,-0.847763276574243,0.126502035741983,0.105296800637776,0.00624320182002185,-0.0094266194492079,0.84865117709169,0.0749982753611486,0.923649452452839
71.5299999999431,24700,-0.322948786175628,0.479869696741614,7.36834104630218,6.1121,1390,1567,1448,1514,0.166565435174846,-0.0874532639187613,-0.0406161763182679,0.0143427281386861,-0.949307361813357,-10.6770355216904,0.306144266308913,-0.380846806847799,-5.27762636831578,0.0631680984165216,-0.0011169619422834,-0.140552285898301,-0.212461390143959,-0.311881285300263,-0.893328377592731,0.128577557370741,0.106656155637776,0.00563545611873689,-0.00837372465957582,0.861847208782596,0.0762629239492449,0.938110132731841
71.579999999943,24720,-0.299932417611663,0.479717268074835,7.40789724652213,6.19,1389,1566,1448,1513,0.147248694790178,-0.0633905208240613,-0.0459528946345351,-0.0753141969123226,-0.873081287010642,-10.6978621789408,0.295620119967286,-0.396486011623854,-5.32353059164764,0.0710903313202518,-0.00472156500876181,-0.142956780060344,-0.20845668568273,-0.312686689931571,-0.943026430027828,0.129267813064579,0.108015510637776,0.00523382048729569,-0.00837106477934051,0.868841744902326,0.0775699684940097,0.946411713396336
71.632499999943,24740,-0.265401009846308,0.459611766183611,7.40812652447325,6.2679,1389,1565,1449,1512,0.103709662259717,-0.0583121990490932,-0.0510098603558066,0.0478518336313599,-0.812643308777387,-10.6167777959441,0.285321072683601,-0.412099152564652,-5.37189296578496,0.077317105643586,-0.00743281127132833,-0.145606843355649,-0.202800515876206,-0.311407221431881,-0.990812802781818,0.129271813964826,0.109374865637776,0.00463124742179026,-0.00802022377133866,0.87179873256462,0.0789631020278877,0.950761834592507
71.6799999999429,24760,-0.253880933185878,0.439657073936017,7.36879785084444,6.2679,1390,1565,1450,1512,0.0888568014281913,-0.0741413157940626,-0.0508267529633218,0.00423930249194858,-0.924296522440527,-10.4723158431684,0.275340013094775,-0.427582071213342,-5.42245832961297,0.082035948104649,-0.0104688688656915,-0.148410581457723,-0.196296200644157,-0.308012513909086,-1.03098183707351,0.128585528610003,0.109374865637776,0.00443022208406574,-0.00767201439161817,0.863020023219825,0.0789160885168446,0.94193611173667
71.7324999999429,24780,-0.219335541422468,0.419565245282116,7.368997670767,6.3458,1390,1564,1451,1511,0.0937712474729471,-0.0904738696283664,-0.0453068393459844,-0.108324975150101,-0.869971905210387,-10.4755160500581,0.265754456826946,-0.442887164857016,-5.47491970496319,0.0865007061390634,-0.0144345075224925,-0.151155095871153,-0.187044791892761,-0.303566544351106,-1.06722485682299,0.128589015467652,0.110734220637776,0.00382740499779424,-0.00732141198160756,0.86600079448739,0.0802675704050688,0.946268364892459
71.7799999999428,24800,-0.161794977642279,0.399442945508803,7.34948613337373,6.4237,1390,1563,1453,1510,0.122450533903164,-0.0891531841511917,-0.0374878011158352,-0.00682813488203651,-0.885674225128533,-10.3705280874002,0.256661868404015,-0.4579415804762,-5.52915011657392,0.0919543335544803,-0.018805717080347,-0.153653923335513,-0.17587509875966,-0.298388845547861,-1.10126461277205,0.12824555167243,0.112093575637776,0.00342641921632356,-0.0073206768503557,0.866048029077672,0.0816245577505522,0.947672586828224
71.8299999999428,24820,-0.161681251042182,0.359502895023945,7.34966817338296,6.4237,1391,1562,1453,1510,0.129779577241182,-0.0634600033870658,-0.0269754884960464,-0.0206234222579824,-1.00127149191579,-10.3518281923253,0.248185585860177,-0.472666933750874,-5.58499823619656,0.0984404821223837,-0.02249083742154,-0.15562415655154,-0.16292475322665,-0.290512267296027,-1.13251216894619,0.128251715738301,0.112093575637776,0.00282133763065826,-0.00627332396960251,0.863750487731395,0.0815960151901198,0.945346502921515
71.8799999999428,24840,-0.161613851805017,0.319631958928926,7.29060116534129,6.4237,1393,1562,1454,1510,0.12467411048703,-0.0318735651735293,-0.0156632049322674,-0.0562010943185245,-0.935251498185788,-10.203666666814,0.240426660074924,-0.486949779058648,-5.64230748385977,0.104975566093669,-0.0247546362724981,-0.156929277527588,-0.147394446693493,-0.28006636171728,-1.15920231712682,0.127220996447973,0.112093575637776,0.00282016151396974,-0.00557757613474441,0.855797299181296,0.0815735542323783,0.937370853413674
71.9324999999427,24860,-0.161613851805017,0.319631958928926,7.29060116534129,6.3458,1393,1562,1454,1511,0.0804060439429206,-0.021270720922928,-0.00716433832249361,0.0365969378760642,-0.845351658631468,-10.2043860403322,0.233456937379755,-0.500644629788411,-5.70085324427133,0.110113583843607,-0.025861047882422,-0.15760803168623,-0.130904993313365,-0.267171818207061,-1.18248200775004,0.127220996447973,0.110734220637776,0.00282016151396974,-0.00557757613474441,0.85436540216738,0.080204249527183,0.934569651694563
71.9799999999427,24880,-0.173084543285489,0.299703883400382,7.27090570784216,6.3458,1394,1562,1454,1511,0.0565271906215648,-0.0328453872477383,0.00147289659993081,-0.00110333101620808,-0.905435009537091,-10.1549965037214,0.227333466124887,-0.513618089858468,-5.76051089741366,0.113486213032317,-0.027166361540015,-0.15790379651601,-0.114027270285736,-0.251903310473285,-1.20327353505949,0.126877310714614,0.110734220637776,0.00302032508030397,-0.00522983121677133,0.850431222432297,0.0802252807629492,0.930656503195246
72.0299999999426,24900,-0.150083714363721,0.299673688891082,7.25120125984823,6.3458,1394,1562,1455,1511,0.0472363185856463,-0.0588305967470842,0.0109710048971808,-0.0997946149991274,-0.837447120588196,-10.1033614387472,0.222093950223032,-0.525815251195185,-5.82114614870919,0.115900580328124,-0.0294534070105888,-0.157861044467499,-0.0955866935592608,-0.235674233961968,-1.22138892173971,0.12653346809712,0.110734220637776,0.0026189606156191,-0.00522930432258404,0.848418598476475,0.080255822634024,0.928674421110499
72.0799999999426,24920,-0.138551397471361,0.279713029393216,7.21178824028891,6.2679,1395,1562,1456,1512,0.0762590401836741,-0.0699560335984606,0.0193146213781272,-0.0422378486015559,-0.842636433164915,-9.973054964036,0.21779024960216,-0.537188300149938,-5.88261127032731,0.118893799782489,-0.0328491818212653,-0.157480574407788,-0.0760219311528558,-0.21894767589274,-1.2361794971221,0.125845710905809,0.109374865637776,0.00241772168584745,-0.00488099081434628,0.841192859303094,0.0789362657569362,0.92012912506003
72.1324999999425,24940,-0.115459486305495,0.23973194827387,7.19219218208922,6.2679,1396,1561,1457,1512,0.0893613199299006,-0.0554527004792152,0.0269068196601267,-0.0521852982662461,-0.932079414314051,-9.92335757349978,0.214511359492684,-0.547671147424484,-5.94474949677073,0.123061430033051,-0.0361244944534574,-0.15672089786321,-0.0549682714349912,-0.200406104932086,-1.24851826626876,0.125503759690225,0.109374865637776,0.00201476783600308,-0.00418332094881369,0.837730189186883,0.0789498396814062,0.916680028868289
72.1799999999425,24960,-0.115394890366817,0.199777880794268,7.19229632417302,6.19,1397,1560,1457,1513,0.0949456079651941,-0.0236361240602581,0.0319867522389719,-0.0574206331990598,-0.886219308741731,-9.93342693270873,0.212338774530896,-0.557190456940045,-6.00741234333638,0.127758351616418,-0.0383518725619982,-0.155496997329995,-0.0318286705077446,-0.179714095296597,-1.25825351078018,0.125505576969587,0.108015510637776,0.00201364063687315,-0.00348612247129463,0.835933177630938,0.0776426051705476,0.913575782801485
72.2299999999424,24980,-0.126889173277796,0.179828796861108,7.17256973778601,6.19,1398,1560,1457,1513,0.0595597796139372,-0.00789633573515927,0.0368450264248757,0.0140682129433701,-0.830222785786512,-9.87785308991919,0.211336820838754,-0.565630991885308,-6.07052917526251,0.131570606024918,-0.0392379691216447,-0.153877383429194,-0.00794784788461538,-0.157596020845827,-1.26623429390932,0.125161348037134,0.108015510637776,0.00221421587366972,-0.003138010956661,0.83346501597767,0.0776705369046294,0.911135552882299
72.2824999999424,25000,-0.126889173277796,0.179828796861108,7.17256973778601,6.1121,1398,1560,1457,1514,0.0304474306087636,-0.00897898663312499,0.0425034333949802,0.000997450960210533,-0.827157231193531,-9.89778632984254,0.211538273820173,-0.572924173097195,-6.13397534659951,0.133718732020142,-0.0398212044835179,-0.151947081962131,0.0160085169927193,-0.134097748381566,-1.27166443237865,0.125161348037134,0.106656155637776,0.00221421587366972,-0.003138010956661,0.829824446583383,0.0760884364316329,0.905912883015016
72.3299999999423,25020,-0.115366315516599,0.159857291517795,7.13311132773703,6.1121,1399,1560,1458,1514,0.0137105115106869,-0.0318185147046692,0.0455034583496693,-0.0660843874428451,-0.783646081002964,-9.79812840613767,0.212959489038817,-0.579015975999265,-6.19765915784745,0.134569191876764,-0.0411147224000206,-0.149916051846066,0.0407061079510725,-0.109600936600977,-1.27437178278623,0.124472798781779,0.106656155637776,0.00201314200573684,-0.00278950818842017,0.826250194209478,0.0764747535252235,0.902724947734701
72.3799999999423,25040,-0.0807906516300221,0.139839408560712,7.13318611776575,6.0342,1399,1559,1459,1515,0.0296478471678956,-0.0426324385920454,0.046081283300759,-0.0405562628173567,-0.78463930019435,-9.80638934778438,0.215619505548047,-0.583878215236569,-6.26138745811495,0.135451317181063,-0.0433507176147428,-0.14791005256319,0.0659631715744274,-0.0848472534189226,-1.27475443997908,0.12447410386778,0.105296800637776,0.00140979667091607,-0.00244019613081909,0.824783549137342,0.0752549930291287,0.90003854216647
72.4299999999423,25060,-0.0807555668587824,0.099885564820136,7.13324269166438,5.9563,1400,1558,1459,1516,0.0418595635253152,-0.0372146590215862,0.0442570930778677,-0.042586786518292,-0.824572758943365,-9.81159772615939,0.219567880600627,-0.587477649008034,-6.3251153673323,0.137192616493498,-0.0457261266586212,-0.145940283464266,0.0921509139775615,-0.0590936892584318,-1.27425287116116,0.124475091082311,0.103937445637776,0.00140918444165794,-0.00174300155754603,0.822856806215306,0.0740486021623502,0.896905408377656
72.4824999999422,25080,-0.0576950533136449,0.0599254919063541,7.11353889852055,5.8784,1401,1557,1460,1517,0.0503745442061304,-0.011822762744386,0.0419249473963323,-0.029111826707779,-0.809053832657465,-9.76593659848509,0.224854985325001,-0.589779221407655,-6.38876949326952,0.139549517246175,-0.0473012374460324,-0.143968332862535,0.119382086774475,-0.0327000917477265,-1.27123061980864,0.124131259891951,0.102578090637776,0.00100677848029528,-0.00104569828520054,0.818198170284464,0.0728277076594585,0.891025877943922
72.5299999999422,25100,-0.0692144160614538,0.0399569199221562,7.09378062260916,5.8784,1402,1557,1460,1517,0.0252931326843984,0.00774830957759555,0.0370764943209932,0.0145324236491594,-0.776954777684209,-9.71508689731545,0.231515067846229,-0.590727619782194,-6.45227130718744,0.141434645744296,-0.0476137746696729,-0.142023050039181,0.147091433873089,-0.00519138872319981,-1.2681480039417,0.123786477977298,0.102578090637776,0.00120779136024457,-0.000697246704076285,0.815837600039219,0.0729167290365756,0.888754329075794
72.5849999999421,25120,-0.0461713432457312,0.0399527974181788,7.0740329626467,5.8784,1402,1557,1461,1517,-0.00130160607781311,0.0110474257570277,0.0333059563327779,0.0165679272385331,-0.76186924112185,-9.67577865608805,0.239995374423195,-0.590230215854692,-6.51872793847802,0.141940057718973,-0.0472767072525412,-0.140113958331388,0.175862090652651,0.024051721470595,-1.26311102265352,0.123441881310953,0.102578090637776,0.000805689739610195,-0.000697174766381881,0.813466496340583,0.072994181023154,0.886460677363737
72.6349999999421,25140,-0.0461651872147938,-2.06261502814436E-07,7.07404235828549,5.8005,1403,1556,1461,1518,-0.018530114660001,-7.40013558618084E-05,0.027921348484387,-0.00334702750483434,-0.729759989117074,-9.69742750697716,0.249465447399627,-0.588334199602494,-6.58167108042439,0.141287780319271,-0.0471948576887525,-0.138544687950677,0.202919267059846,0.0518308659206193,-1.25523515030418,0.12344204526485,0.101218735637776,0.000805582316870336,5.14782857043983E-09,0.812076736167124,0.0718501664571718,0.883926902624296
72.684999999942,25160,-0.0231148022135371,3.56222124323914E-12,7.05428689195081,5.8005,1403,1556,1462,1518,-0.014918539542722,-0.00665384245620308,0.023181490787052,-0.0100913106184782,-0.736431654718218,-9.65425987413825,0.260281439628222,-0.58506051722374,-6.6442419568012,0.140388010790547,-0.0475523563464751,-0.137308739440902,0.229709245478655,0.0789999427935232,-1.24742557990024,0.12309731237731,0.101218735637776,0.0004033530985984,1.54850319344924E-09,0.80978647241165,0.0719308058479237,0.881717278259573
72.732499999942,25180,-6.23300517223311E-05,-0.0399448035867439,7.034514309655,5.8005,1404,1555,1463,1518,-0.00441316080769047,-0.00636434353204226,0.019574168877547,-0.0184655006657747,-0.754960225304575,-9.60529154752956,0.272437238974789,-0.580445534797573,-6.70641088711664,0.139837783359347,-0.0481150221585027,-0.136315088994706,0.256490541932167,0.105421826989444,-1.23878052347975,0.122752280816248,0.101218735637776,1.08745937473849E-06,0.000697038371154026,0.807459872578577,0.0720023059526433,0.87946217853122
72.7824999999419,25200,0.0345266320380581,-0.0599025184533926,7.03449481755724,5.8005,1404,1554,1464,1518,0.0028036230319513,0.0122393479181119,0.0170782414903162,0.0150632790778958,-0.764704603672865,-9.62279819238449,0.285926817978317,-0.574528703322511,-6.76810578403383,0.139809734983173,-0.0481579056160266,-0.135396867030571,0.283102328503585,0.131200440020279,-1.22914296566824,0.122751940679142,0.101218735637776,-0.000602489929091948,0.00104530049557706,0.807937391316915,0.0720589984970793,0.879996389813994
72.8324999999419,25220,0.0345032563431321,-0.0998371787343027,7.03445711298536,5.7226,1405,1553,1464,1519,-0.00570418610292154,0.0296433474552443,0.0117450091872713,0.0270113710993996,-0.767757498222064,-9.63613229661624,0.300740132498703,-0.567311642638665,-6.82930052495911,0.139743884398007,-0.0472365407078921,-0.134529449728401,0.309309348619492,0.157487469976564,-1.2189749891732,0.122751282734362,0.0998593806377757,-0.000602082023215483,0.00174216031747893,0.8065466517492,0.0709105466392126,0.877457198388412
72.8849999999418,25240,0.0345032563431321,-0.0998371787343027,7.03445711298536,5.7226,1405,1553,1464,1519,-0.0310476421785814,0.0417423371366256,0.00779076506214182,0.0290044837209903,-0.715075577737415,-9.6214540813721,0.316853044456682,-0.558789881389805,-6.89004245546683,0.138814100857357,-0.0454426727147947,-0.133781922023178,0.33500883726813,0.183426625068518,-1.2106488388727,0.122751282734362,0.0998593806377757,-0.000602082023215483,0.00174216031747893,0.806590686111791,0.0709702187506649,0.877560904862456
72.9349999999418,25260,0.069091917921842,-0.119774082542781,7.03440917088448,5.7226,1405,1552,1465,1519,-0.0467366914087145,0.0329236663576826,0.00443044588538643,0.0439498981095837,-0.69746554727481,-9.632101159163,0.334215304629919,-0.548988137946686,-6.95035254775572,0.136747875056408,-0.0436297463620354,-0.13323159602815,0.359373380281303,0.208361676551758,-1.20171051298578,0.122750446144702,0.0998593806377757,-0.00120565416776396,0.00209005928893689,0.806958449240454,0.0710228612809928,0.877981310521447
72.9824999999418,25280,0.092172985415311,-0.119762372439428,7.0146197786046,5.8005,1405,1552,1466,1518,-0.0489677669673008,0.0281248484253144,0.00175634039447701,0.0198569615787582,-0.748706033956304,-9.58308151542198,0.352770056684336,-0.537955508632427,-7.01024731629182,0.134356991505617,-0.0421446660325627,-0.132901123588324,0.382553786482333,0.232429539699999,-1.19401966273642,0.122405121249418,0.101218735637776,-0.00160841879552501,0.00208985494763337,0.806994897601225,0.0723354436454474,0.879330341246672
73.0324999999417,25300,0.103686069045283,-0.139700736262947,7.03434230951277,5.8005,1405,1551,1466,1518,-0.0363479167782879,0.0260532269458616,-0.000560834561049039,-0.0117718058946278,-0.734785618490687,-9.63382793473847,0.372464663573307,-0.525757678429003,-7.06974417399811,0.132209082298538,-0.0408944438609198,-0.13272259340106,0.405035187407359,0.25532777644647,-1.18632477019042,0.122749279413766,0.101218735637776,-0.00180932210486801,0.00243777939635375,0.810130269995076,0.0724192575446534,0.882549527539729
73.0824999999417,25320,0.138285232911972,-0.159616927134614,7.03425654366291,5.7226,1405,1550,1467,1519,-0.0326977480369029,0.0399891693323605,-0.0028776424798779,0.0500349036381551,-0.719803661675474,-9.63222897613659,0.393254188776106,-0.512447544937708,-7.12892450359672,0.130521368454711,-0.039264217587504,-0.132571362866251,0.426575785568097,0.277102323800776,-1.18112730694052,0.122747782799686,0.0998593806377757,-0.00241307751434174,0.00278531692706436,0.807983953386352,0.0712304548066698,0.879214408193021
73.1349999999416,25340,0.149791821887107,-0.179540255584205,7.05396121420743,5.7226,1405,1549,1467,1519,-0.0305998800090731,0.0537945171874601,-0.00343334575151666,0.0428089204303829,-0.780884171097404,-9.69579718853561,0.41508899807315,-0.498064647571123,-7.18781265836583,0.128960272258801,-0.036964806014247,-0.132406586885674,0.446526859659281,0.298137929933577,-1.17512207383851,0.123091629300688,0.0998593806377757,-0.00261386749195783,0.00313297900850972,0.811741782735379,0.0712741270786573,0.883015909814037
73.1849999999416,25360,0.172889998524126,-0.179522973484611,7.03415184602452,5.8005,1405,1549,1468,1518,-0.0478650874499238,0.0671359905908323,-0.00404906358012237,0.022599200911152,-0.727641421399816,-9.6613163907517,0.437901958862819,-0.48264309546462,-7.24646954836051,0.127018985583562,-0.0338733109564713,-0.132225860453904,0.465579111594502,0.318574297639304,-1.17107176428154,0.123091629300688,0.101218735637776,-0.00261386749195783,0.00313297900850972,0.81354706308703,0.0725384190615012,0.886085482148532
73.2324999999415,25380,0.172831027110304,-0.21941591463131,7.03405613546391,5.7226,1406,1548,1468,1519,-0.0634247226318447,0.0705623763906665,-0.00541393244033207,0.0892076691397006,-0.691617098440052,-9.63986949592247,0.461602684874015,-0.466237770993114,-7.3048357309015,0.124223680908094,-0.0304136297005882,-0.13202822804511,0.482379360315221,0.33741026902838,-1.16389505479863,0.122744285676613,0.0998593806377757,-0.00301590162310262,0.0038288092588817,0.809120723656599,0.0713695578369774,0.880490281493576
73.2824999999415,25400,0.184393855578407,-0.199437395781311,7.05384662924619,5.8005,1405,1548,1468,1518,-0.074245707039975,0.0656831591008251,-0.00605741937345719,0.0520228575930329,-0.75834480998442,-9.69415198891977,0.486098883758799,-0.448900227791033,-7.36292024152224,0.12075632299224,-0.0269636943022234,-0.131909724871587,0.49700140735905,0.355551392467877,-1.16019591337067,0.123089629793114,0.101218735637776,-0.00321767297987101,0.00348018410494921,0.815089337083706,0.0726609545326594,0.887750291616366
73.3324999999414,25420,0.219000962359489,-0.219324814594242,7.05371301876096,5.7226,1405,1547,1469,1519,-0.0646407689135503,0.0558527486806599,-0.0066599766720293,-0.0131490478707126,-0.7008978635368,-9.67906030456094,0.511291604756665,-0.430707656012952,-7.42083668625595,0.117180074590336,-0.0239544294219355,-0.131864165650449,0.510254086942278,0.372168107322475,-1.15619662641194,0.123087298290147,0.0998593806377757,-0.00382156699320091,0.00382721956323487,0.81298761668799,0.0714704898718633,0.884458106559853
73.3849999999414,25440,0.219000962359489,-0.219324814594242,7.05371301876096,5.8005,1405,1547,1469,1518,-0.0590710082456045,0.0637264370505492,-0.00631157046971894,0.0762227770095346,-0.713392254214404,-9.69546183347414,0.537085712784888,-0.411727930342071,-7.47859575983086,0.114146102031617,-0.0209284992489301,-0.131865732080658,0.521505511134874,0.386621413823484,-1.15423286722171,0.123087298290147,0.101218735637776,-0.00382156699320091,0.00382721956323487,0.814659033712754,0.072724924565783,0.887383958278537
73.4349999999413,25460,0.25361305565004,-0.23920110519427,7.05356044794132,5.7226,1405,1546,1470,1519,-0.0559100852085828,0.0729149429222299,-0.00752740133188531,0.0548639123050968,-0.781733706799012,-9.74356100782187,0.563402207352405,-0.392034575011299,-7.53626447581679,0.111285219762762,-0.0175396463727699,-0.131824055404574,0.530694911327797,0.400730494110884,-1.15344675349534,0.12342984837741,0.0998593806377757,-0.00462737098507619,0.0038256163321753,0.816581163950227,0.0715367291047235,0.88811789305495
73.4849999999413,25480,0.25361305565004,-0.23920110519427,7.05356044794132,5.7226,1405,1546,1470,1519,-0.0597386586065196,0.0837829454618181,-0.00676672740326143,0.0103419363482415,-0.712325834924139,-9.66338096859863,0.590141414751921,-0.371690241206196,-7.59388848612094,0.108415632128521,-0.013596866226835,-0.131734217799123,0.538366872605995,0.413231891280913,-1.15144016347322,0.123084635929344,0.0998593806377757,-0.00442554802112103,0.00417406083420535,0.813684401413313,0.0715622462324279,0.885246647645741
73.5324999999413,25500,0.276675363437044,-0.239123545994458,7.09301146176313,5.7226,1404,1545,1470,1519,-0.0672935092088688,0.0864414949123787,-0.00790138378262316,0.0992850369372647,-0.687508911954262,-9.77994787734817,0.617190645640709,-0.350742306251087,-7.65148475230886,0.105253798755978,-0.00930932892809951,-0.131642459588012,0.543553431978244,0.424501706785626,-1.15278780401192,0.123773056120535,0.0998593806377757,-0.00482798529200422,0.00417270742616865,0.818455142874985,0.0715922922580641,0.890047435133049
73.5849999999412,25520,0.276675363437044,-0.239123545994458,7.09301146176313,5.7226,1404,1545,1470,1519,-0.072234682404739,0.0901957433630741,-0.00773279435413996,0.072530375123353,-0.771227300023684,-9.77334346599005,0.6444396391227,-0.329246244539083,-7.70919745697874,0.101820106849731,-0.00487331720522114,-0.131578702009141,0.545845328085857,0.434756736261646,-1.15567716870105,0.123773056120535,0.0998593806377757,-0.00482798529200422,0.00417270742616865,0.819723828502151,0.0715939221060809,0.891317750608232
73.6324999999412,25540,0.276675363437044,-0.239123545994458,7.09301146176313,5.8005,1404,1545,1470,1518,-0.0762656276791608,0.0875483668945229,-0.00720583548170465,0.00752577824231661,-0.711943484144495,-9.73659034700783,0.671763397023639,-0.307284948173224,-7.76705384431332,0.0980639463515832,-0.000415795811838789,-0.131534524665751,0.546482317287973,0.443511282746452,-1.15844765850494,0.123773056120535,0.101218735637776,-0.00482798529200422,0.00417270742616865,0.821563205476409,0.0728647023215955,0.894427907798005
73.6824999999411,25560,0.28824032751678,-0.219160997260584,7.11278855136533,5.8005,1403,1545,1470,1518,-0.0808445369299719,0.0799055179742638,-0.00798467377233924,0.0881579001713966,-0.693931659639517,-9.8172512402816,0.699036411701482,-0.284936055029362,-7.82505632488039,0.0940934151037435,0.00387364826875292,-0.13150135502989,0.544394417100869,0.450269209681516,-1.16235090686097,0.124118166334093,0.101218735637776,-0.0050297939151956,0.00382436095076253,0.824933418739929,0.0731621651699839,0.898095583909912
73.7324999999411,25580,0.31136527072502,-0.219140602802439,7.09294714139812,5.7226,1403,1545,1471,1519,-0.0638693047516954,0.0808857690353896,-0.00718539584308389,0.0614955581339083,-0.78464510017831,-9.77471993721174,0.726142596134001,-0.262275800213598,-7.88323937697596,0.090541304908758,0.00784253729912798,-0.131488412562828,0.539374988419874,0.45575570440221,-1.16488655869183,0.123771933730165,0.0998593806377757,-0.00543332417417941,0.00382400506746791,0.820150528098075,0.0716802652419216,0.891830793339997
73.784999999941,25600,0.31136527072502,-0.219140602802439,7.09294714139812,5.7226,1403,1545,1471,1519,-0.0578543214229063,0.085063234203338,-0.00629609363879765,-0.00155120200926587,-0.720785130780404,-9.74563469527717,0.752966660696168,-0.239381731336983,-7.94155641990657,0.0874851226238834,0.011976675215439,-0.131467478211556,0.532996103671865,0.460011680517184,-1.16768566231726,0.123771933730165,0.0998593806377757,-0.00543332417417941,0.00382400506746791,0.819703876079138,0.0716362223643735,0.891340098443511
73.832499999941,25620,0.31136527072502,-0.219140602802439,7.09294714139812,5.7226,1403,1545,1471,1519,-0.0607490774051079,0.0938983590766752,-0.00692336822374314,0.103957482802795,-0.694757768732716,-9.76841561852394,0.779393547044152,-0.216311871071281,-8.00001228279199,0.0845687048468024,0.0164999551325449,-0.131410522050464,0.524034801222302,0.462638723990635,-1.17064577627942,0.123771933730165,0.0998593806377757,-0.00543332417417941,0.00382400506746791,0.818872499029153,0.071692370443894,0.890564869473047
73.8824999999409,25640,0.31136527072502,-0.219140602802439,7.09294714139812,5.7226,1403,1545,1471,1519,-0.0686119753953924,0.0976865635364807,-0.00666547001193678,0.0818104251265885,-0.77987883279111,-9.76921430508371,0.80531063394653,-0.193119988512681,-8.05861018145861,0.0813776428221816,0.0213126657933296,-0.131343966609297,0.51208621280028,0.464549500407119,-1.17331177074971,0.123771933730165,0.0998593806377757,-0.00543332417417941,0.00382400506746791,0.82026230431529,0.071694676100018,0.891956980415308
73.9349999999409,25660,0.311426360873363,-0.179297696865207,7.09304499278342,5.7226,1402,1546,1471,1519,-0.0727377846871047,0.0896914269804183,-0.00643388364474105,0.00550594331043716,-0.705100471152672,-9.75305070121163,0.830590441328733,-0.169875150470069,-8.11729564775185,0.0777592657929896,0.0260113075148293,-0.131297159422046,0.49846535863666,0.465290153336193,-1.1741868445888,0.123773641236839,0.0998593806377757,-0.00543439019726799,0.0031287463588632,0.820265934634827,0.0717023516822057,0.891968286317033
73.9824999999408,25680,0.311426360873363,-0.179297696865207,7.09304499278342,5.8005,1402,1546,1471,1518,-0.0718415049089751,0.0768725171325177,-0.00583614252942264,0.0797972221360087,-0.694163091511932,-9.78035973875815,0.855105140693016,-0.146636329680177,-8.17608676412786,0.074074114666002,0.0302052192557779,-0.131307224972094,0.482058178689006,0.463914632933627,-1.17748951809496,0.123773641236839,0.101218735637776,-0.00543439019726799,0.0031287463588632,0.821216677156988,0.0729467768589161,0.894163454015904
74.0349999999408,25700,0.288300648438171,-0.179314682453811,7.11288643566438,5.7226,1402,1546,1470,1519,-0.0632762993188177,0.074727787941002,-0.00616412431656581,0.057832523052367,-0.777730653978273,-9.82499258568829,0.87874579189179,-0.123482772772937,-8.23508397434217,0.0707337283743708,0.0339589456995132,-0.131316915687909,0.463129469250614,0.46181105765779,-1.1823943754245,0.124119874415111,0.0998593806377757,-0.00503084651527389,0.00312904275738435,0.822618609444167,0.0717019416506105,0.894320551094777
74.0849999999408,25720,0.288300648438171,-0.179314682453811,7.11288643566438,5.7226,1402,1546,1470,1519,-0.0550141238278802,0.0729085988483863,-0.00606912282176639,-0.00707960638136257,-0.72507172887512,-9.79702188723701,0.901409870134915,-0.100483308233957,-8.29432233740067,0.0677353101477224,0.0376203702958859,-0.131344685369274,0.442935370736872,0.458390603602356,-1.18692442266923,0.124119874415111,0.0998593806377757,-0.00503084651527389,0.00312904275738435,0.822376810317163,0.0716963300971631,0.894073140414326
74.1349999999407,25740,0.276796319611489,-0.159417525994122,7.09320647585865,5.7226,1402,1547,1470,1519,-0.0550949446871727,0.0755539536600285,-0.00444065858019802,0.0811349132987276,-0.700066401802917,-9.76435888184661,0.922995042426144,-0.0777036656850122,-8.35376470046607,0.0650232473980825,0.0414169226919434,-0.131329235890717,0.420515964908164,0.45289904183678,-1.19020749835628,0.123776459116501,0.0998593806377757,-0.0048300959772483,0.00278183737716278,0.818536937551453,0.0716756860619494,0.890212623613402
74.1824999999407,25760,0.288349604765253,-0.139467435291422,7.11296471833877,5.7226,1401,1547,1470,1519,-0.0548472800224236,0.0765501887923457,-0.00527669076779471,0.0644740458189356,-0.777003833774067,-9.82384871651177,0.943414781568237,-0.0551863820953588,-8.41331266323724,0.0623134890858168,0.0452226850534474,-0.131325219653286,0.395812839705894,0.447379111774622,-1.19226114844485,0.124121240447779,0.0998593806377757,-0.00503170080318146,0.00243370829440065,0.822063469387447,0.0716647042088065,0.893728173596254
74.2349999999406,25780,0.276839157665219,-0.119563439302304,7.09327540661727,5.7226,1401,1548,1470,1519,-0.0493442400062989,0.0717140762753103,-0.00499647817718104,0.000357786086439937,-0.729452978721361,-9.75250970615227,0.96256326028911,-0.0329856122275285,-8.47302710449937,0.0596882189222089,0.048882182184114,-0.131336629524908,0.369669400014533,0.440837157090819,-1.19566990572618,0.123777661958239,0.0998593806377757,-0.00483084350128588,0.00208638356439055,0.819254255458484,0.071651643896006,0.89090589935449
74.2849999999406,25800,0.253721060114904,-0.1195746023201,7.11310729984965,5.7226,1401,1548,1469,1519,-0.0536951400518776,0.0688729942974514,-0.00371479741672476,0.075536736186563,-0.702723942930137,-9.78924533832257,0.980347434177956,-0.0111547222594978,-8.53279999662267,0.0571063471047598,0.0524419848783029,-0.131327689477784,0.341671165609098,0.432436259381172,-1.19564118850317,0.123778947426501,0.0998593806377757,-0.00422588094899709,0.00243473777531205,0.818519715226033,0.0716275003494147,0.890147215575448
74.3349999999405,25820,0.242207344060303,-0.0996622262180326,7.09340733790586,5.8005,1401,1549,1469,1518,-0.0537600962053313,0.0602389762989869,-0.00376529845864386,0.0504079393204667,-0.779491939303033,-9.77884239771668,0.996686298832531,0.0102690363752251,-8.59263933075052,0.0544328256992352,0.0556659187498827,-0.131360736745095,0.311543823061096,0.42389109148675,-1.19735111196269,0.123779964159225,0.101218735637776,-0.0042265183538801,0.00173910739607001,0.820827658486804,0.072840619660723,0.893668278147527
74.3824999999405,25840,0.242207344060303,-0.0996622262180326,7.09340733790586,5.8005,1401,1549,1469,1518,-0.041641267750219,0.0501680193268615,-0.00375070364607549,-0.0134886311317238,-0.750684902177452,-9.77459140227907,1.01149668391219,0.0312298314168958,-8.6525329065465,0.0519757079727691,0.0583691186515648,-0.131426527015794,0.280443542919243,0.414387174917199,-1.19829765163083,0.123779964159225,0.101218735637776,-0.0042265183538801,0.00173910739607001,0.82088762624724,0.0728230398291764,0.893710666076416
74.4324999999404,25860,0.230689768646336,-0.0797428648325039,7.07369921197495,5.7226,1401,1550,1469,1519,-0.036627688337105,0.0488030288019858,-0.00410955808652561,0.0465231116209031,-0.715169324293155,-9.74510568838684,1.024705517199,0.0516783316597456,-8.71243425363536,0.0500483157293524,0.0609072804463325,-0.131483397648213,0.247985885720629,0.403604500367033,-1.19725921332198,0.123436057361731,0.0998593806377757,-0.00402553666290638,0.00139151453989253,0.815321884660364,0.0715657411124029,0.886887625772767
74.4824999999404,25880,0.207580732310252,-0.0797502622902484,7.09352111063133,5.7226,1401,1550,1468,1519,-0.0307693153767815,0.0509979932910012,-0.00393161835194147,0.0426836990912349,-0.77994141461655,-9.79971114879963,1.03626022354842,0.071584674082254,-8.77226218164008,0.0484628260871268,0.0633881698274802,-0.131543749711991,0.213957343695958,0.392483272246578,-1.19639377477412,0.123781949493285,0.0998593806377757,-0.00362228397884171,0.00139164362553019,0.818236001322806,0.0715350437138092,0.889771045036615
74.5324999999403,25900,0.196060842944398,-0.0598225833673386,7.07380313598768,5.7226,1401,1551,1468,1519,-0.0328314983913363,0.0470181319880262,-0.00349148739242904,-0.000991792307805883,-0.739340350279372,-9.74255995350273,1.0460992318112,0.0909176908598052,-8.83205746264788,0.0468109577031467,0.0658694699759424,-0.131614773974211,0.179276548775922,0.380866738825344,-1.19499890473436,0.123437870835753,0.0998593806377757,-0.00342126190940757,0.00104390562832539,0.815302189168903,0.0714834825548402,0.886785671723743
74.5849999999403,25920,0.1614367813794,-0.0398918478121281,7.07388829483955,5.7226,1401,1552,1467,1519,-0.0360363347797795,0.0385130031842106,-0.00276069913054635,0.0376263977846436,-0.713040697084338,-9.75201071958965,1.05416516118148,0.109647868945555,-8.89175165445476,0.0450723328201843,0.0680871003751024,-0.131682717499226,0.143377178302733,0.368218958190115,-1.19242383224484,0.123439356857718,0.0998593806377757,-0.00281707203509836,0.000696114292886992,0.814251807419929,0.0713518186844813,0.88560362610441
74.6349999999403,25940,0.1614367813794,-0.0398918478121281,7.07388829483955,5.8005,1401,1552,1467,1518,-0.0347423359725153,0.031690247907633,-0.00302849175222532,0.0250920188191339,-0.7734577921088,-9.75386777278801,1.06041287052394,0.127748771904449,-8.95132874939862,0.0432929214905667,0.06983473409302,-0.131776463316749,0.106314558081634,0.355351825934964,-1.19063824255833,0.123439356857718,0.101218735637776,-0.00281707203509836,0.000696114292886992,0.816920580287737,0.072667701948224,0.889588282235961
74.6849999999402,25960,0.138350273487844,1.80011500834116E-07,7.09370165146134,5.8005,1400,1553,1466,1518,-0.0260088289714016,0.0197480389369848,-0.00391119111318793,-0.0141567161611922,-0.760741659368368,-9.81470844992858,1.06480111988911,0.145184851980302,-9.01076520014627,0.0417197013141417,0.0710811472874133,-0.131900932503269,0.0689921496065802,0.342050305566035,-1.18727525442534,0.123785099930768,0.101218735637776,-0.00241421247239068,-1.59263533046072E-09,0.820295415706862,0.072764091650844,0.893059507357706
74.7324999999402,25980,0.138350273487844,1.80011500834116E-07,7.09370165146134,5.7226,1400,1553,1466,1519,-0.0184367359818369,0.0115723936523871,-0.00442418864600003,0.00376208023826152,-0.732791922950911,-9.80310566942337,1.06729513110762,0.161930346332622,-9.07014554631686,0.0405561614604608,0.0718637449932474,-0.132051089210216,0.0308440682488376,0.327924443298547,-1.18773586391312,0.123785099930768,0.0998593806377757,-0.00241421247239068,-1.59263533046072E-09,0.816959215432587,0.0713869695968141,0.888346185029401
74.7849999999401,26000,0.115289593421706,1.77423954211902E-07,7.05420936910833,5.8005,1401,1554,1466,1518,-0.00636463969992699,0.0142087851901914,-0.00292909940631146,0.00985557001754367,-0.789103879736473,-9.70114610915958,1.06787588610142,0.177964283705006,-9.12948714541374,0.0400410422004571,0.0724676347831774,-0.132219520878141,-0.00753460746197044,0.313241720283186,-1.1846315780006,0.123095959603708,0.101218735637776,-0.00201180360523658,-1.54748266516513E-09,0.813353527289673,0.0725663689489486,0.885919896238622
74.8349999999401,26020,0.0806741930385514,0.0199590914417443,7.05424741880116,5.8005,1401,1555,1465,1518,-0.0115526367053114,0.0157973737073844,-0.00324042792089575,0.000419114986647595,-0.76721966751118,-9.7126278145201,1.06654542204316,0.193267678612846,-9.18864783294812,0.0395707004138576,0.073245954767335,-0.132362362337453,-0.0458050065673915,0.298777078457902,-1.18171494309517,0.123096623570848,0.101218735637776,-0.00140776486855053,-0.00034828459709309,0.813334224584476,0.0725288001766546,0.88586302476113
74.88249999994,26040,0.0691233329082907,0.0399162579312764,7.09377804877124,5.8005,1400,1555,1464,1518,-0.0204095645568293,0.00312983460578449,-0.0039201991616989,-0.00346034046303056,-0.742309820231277,-9.81071621179999,1.06329415249285,0.207842390054727,-9.2476378981417,0.0387028367539035,0.0738164402837429,-0.132509733620029,-0.0843046182793928,0.28428657276213,-1.17889188768563,0.123786433063826,0.101218735637776,-0.00120620235927749,-0.000696537152335426,0.818626066560291,0.0725097477746231,0.891135814334914
74.93249999994,26060,0.0575868613573793,0.0598833486889786,7.07401204564942,5.8005,1400,1556,1464,1518,-0.0138459923180575,-0.00680185815146835,-0.00406059229262114,-0.00795994862406657,-0.754109731126797,-9.74650005042488,1.05810570239684,0.22168780822882,-9.3065739217727,0.0378903131508232,0.0737234295673369,-0.132716988286151,-0.123122094061167,0.269420317319437,-1.17779985229701,0.12344151630935,0.101218735637776,-0.00100489093071408,-0.00104496288605733,0.815429156296437,0.0724679815722172,0.887897137868654
74.9849999999399,26080,0.0345180275463646,0.0598893375628304,7.09378808247252,5.8005,1400,1556,1463,1518,-0.00253753281121694,-0.0199121698695767,-0.00473552441597603,-0.0260384902087807,-0.769314973576347,-9.79881921705276,1.05098743853946,0.234784198824223,-9.36544856099699,0.0373802694816089,0.073011198917913,-0.132962488281358,-0.161571844903025,0.254388244120567,-1.17726840660363,0.123786608151913,0.101218735637776,-0.000602339780711868,-0.00104506739190604,0.81805257741613,0.0724396776649606,0.890492255081091
75.0324999999399,26100,0.0114603997844352,0.0599079419682305,7.05426740133226,5.8005,1401,1557,1463,1518,0.000893313091448733,-0.0206882118851954,-0.00474138434424616,-0.0270719223406094,-0.769567227183461,-9.70021821650025,1.04196410828602,0.247119851642934,-9.42423727587412,0.0373507632788457,0.0720693887029928,-0.133241848548504,-0.19920285013409,0.239038735971546,-1.17327263186824,0.123096972266016,0.101218735637776,-0.000199984176266203,-0.00104539203878028,0.812434184451952,0.0723996343616243,0.884833818813577
75.0849999999398,26120,-0.0115990251618313,0.0599139692185279,7.07403232034181,5.8005,1401,1557,1462,1518,0.00228284671295651,-0.0221790729336925,-0.00544646152665091,-0.0231068721215399,-0.761802647357242,-9.76014510441302,1.03107613121337,0.258689752372896,-9.4828419751003,0.0374105167106116,0.0709960348844238,-0.133535969566937,-0.23620687500143,0.223802115455658,-1.17094067239077,0.123441870102732,0.101218735637776,0.000202402789046149,-0.00104549721429798,0.815103553938,0.0723641832862805,0.88746773722428
75.1349999999398,26140,-0.0461888174340025,0.0799054617919869,7.07400478973432,5.8005,1401,1558,1461,1518,0.00223648007531469,-0.0289829431274751,-0.00638288290832648,-0.0128414466602111,-0.767553441926768,-9.76295525176018,1.01835261845991,0.269501323705568,-9.54131847769083,0.0374921769770769,0.0697276473476915,-0.133878490506923,-0.272558574974641,0.208629768765733,-1.16821455312752,0.123441389693632,0.101218735637776,0.000805994664195532,-0.00139434875970483,0.815016632276645,0.0723312843633204,0.887347916639965
75.1849999999398,26160,-0.0461888174340025,0.0799054617919869,7.07400478973432,5.8005,1401,1558,1461,1518,0.0020165081828899,-0.0374226073482719,-0.00776466466393252,-0.0429693931011427,-0.772955274681642,-9.75033071250636,1.00383519537175,0.279559281604827,-9.59967614532706,0.0375268115912138,0.0680992781392246,-0.134293452144636,-0.30807705223045,0.193675212642458,-1.16606986918775,0.123441389693632,0.101218735637776,0.000805994664195532,-0.00139434875970483,0.81471642687404,0.0723008841280921,0.887017311002133
75.2324999999397,26180,-0.0807725403651535,0.0999069767966909,7.07395848042144,5.8005,1401,1559,1460,1518,0.00468387293937309,-0.0442275063220632,-0.00918355419116518,-0.0430792430670585,-0.746208711437022,-9.7653883573151,0.987569778214686,0.288864061951629,-9.65789616222296,0.037726711935329,0.0660635929935786,-0.134790407130738,-0.34231290902503,0.178645937523948,-1.16328051917529,0.123440581596122,0.101218735637776,0.00140948062934412,-0.00174337519653692,0.814869584317591,0.0722702741094399,0.887139858427031
75.2849999999397,26200,-0.103828621298791,0.0999374457233393,7.03440399923155,5.8784,1402,1560,1460,1517,0.0114480903006298,-0.0517205078155505,-0.00908029223225385,-0.0213569156955683,-0.788348830761718,-9.64779691278424,0.969613551992076,0.297419697869207,-9.71601139640531,0.0380914927158231,0.0636283502537476,-0.135370391714339,-0.375610730218441,0.163263487874491,-1.16075863755669,0.122750355899358,0.102578090637776,0.00181180924163608,-0.00174390687930692,0.811210609188331,0.0734696728636916,0.884680282052023
75.3324999999396,26220,-0.126861600132512,0.0999475214061851,7.05413858481374,5.8784,1402,1560,1459,1517,0.00990436397140594,-0.0568773713764991,-0.00802336280285332,-0.0589722274243499,-0.805289807871535,-9.71672463818607,0.95003984075929,0.305201296395176,-9.77391230345959,0.0385996676410191,0.0609637745057157,-0.13588135153671,-0.407263647268927,0.148134805808521,-1.15615978641375,0.123094724417768,0.102578090637776,0.00221373472228452,-0.00174408269997259,0.814559068806099,0.073559511739229,0.888118580545328
75.3849999999396,26240,-0.126861600132512,0.0999475214061851,7.05413858481374,5.8784,1402,1560,1459,1517,0.0148028058345159,-0.0595933547238983,-0.00599460250827318,-0.0576507813677282,-0.762159211285941,-9.73239708461333,0.928917915693588,0.31221725738095,-9.83164658149077,0.0391961100382611,0.0580455339719373,-0.136343193816536,-0.437332330991676,0.132702032133465,-1.15331219750244,0.123094724417768,0.102578090637776,0.00221373472228452,-0.00174408269997259,0.814116966778623,0.0733894538955252,0.887506420674148
75.4349999999395,26260,-0.161429152087336,0.119966773227382,7.05405473884848,5.8784,1402,1561,1458,1517,0.0170592109292995,-0.0635378497171662,-0.00459305916126348,-0.0161875917076548,-0.786178128853883,-9.71760375747439,0.906319865604689,0.318473049559939,-9.8892593448882,0.0399951793812779,0.0549632563498189,-0.136728534855158,-0.466166065260606,0.117457789928075,-1.15128004881024,0.123093261305674,0.102578090637776,0.0028169385038962,-0.00209341864425246,0.814019337394912,0.0733495970092106,0.887368934404123
75.4849999999395,26280,-0.161429152087336,0.119966773227382,7.05405473884848,5.8784,1402,1561,1458,1517,0.0162002996011865,-0.0708199354631841,-0.00338605373598021,-0.0729751410050712,-0.808027899001914,-9.71764037262801,0.882334607368695,0.323981480857891,-9.94676716976603,0.0407683947954671,0.0516254024285838,-0.137062745984491,-0.493158679432426,0.102836766598814,-1.1491318126342,0.123093261305674,0.102578090637776,0.0028169385038962,-0.00209341864425246,0.813630161550426,0.0733139117160891,0.886944073266515
75.5324999999394,26300,-0.195956663932402,0.0999977386712562,7.05400735659442,5.8784,1403,1561,1457,1517,0.0169531692996315,-0.071968606703835,-0.00353087282665271,-0.0683623197670262,-0.758580719984301,-9.74374959490843,0.857047193569937,0.328750896597459,-10.0041707300694,0.0416860638750087,0.0480464759334987,-0.137369206280223,-0.517921901832986,0.0882700341397816,-1.14711825067973,0.123092434485341,0.102578090637776,0.0034194435855926,-0.00174495899124807,0.814683368542601,0.0734089419604468,0.888092310503048
75.5824999999394,26320,-0.195956663932402,0.0999977386712562,7.05400735659442,5.8784,1403,1561,1457,1517,0.0164028804041921,-0.0755850500554549,-0.00297441106625617,-0.0197563908227182,-0.782322089368145,-9.72440394890027,0.830555476844373,0.332798238304134,-10.0614945749055,0.0424694374495038,0.0443760196410155,-0.137684130985542,-0.541263520687983,0.073533169703736,-1.14581821518656,0.123092434485341,0.102578090637776,0.0034194435855926,-0.00174495899124807,0.814024932330812,0.0732432337562635,0.887268166087075
75.6324999999393,26340,-0.230506018544035,0.120027172075785,7.05389490111909,5.8784,1403,1562,1456,1517,0.0155409295835464,-0.0819420476967808,-0.00276996805138542,-0.0781541865779214,-0.811473416777389,-9.7225976419971,0.802955414625846,0.336126475225591,-10.1187603412685,0.0432635887404351,0.0405027345781049,-0.137993940884632,-0.562599165315648,0.0595827971413908,-1.14477247405077,0.123090472137296,0.102578090637776,0.00402232982356559,-0.00209447260415711,0.813391301832404,0.0732115602559692,0.886602862088374
75.6824999999393,26360,-0.230506018544035,0.120027172075785,7.05389490111909,5.8784,1403,1562,1456,1517,0.016039698425465,-0.0887269925544114,-0.00299523500479709,-0.0834988936546254,-0.740962413073052,-9.7496506086842,0.774348385415514,0.338747222316982,-10.1759835922428,0.0440088409813273,0.0362375383592156,-0.138323277711478,-0.581287144869885,0.045525956012813,-1.14427859267002,0.123090472137296,0.102578090637776,0.00402232982356559,-0.00209447260415711,0.813994012108232,0.0731825320408979,0.88717654414913
75.7324999999393,26380,-0.230506018544035,0.120027172075785,7.05389490111909,5.8784,1403,1562,1456,1517,0.0250890958692982,-0.0956285834973061,-0.00345594584444548,-0.0306022573522588,-0.787390338614919,-9.72090779846903,0.744844470468697,0.340674784185335,-10.2331938329571,0.0449818159372207,0.0316077363782421,-0.138689667686316,-0.598280908113716,0.0314472149764907,-1.14410750206857,0.123090472137296,0.102578090637776,0.00402232982356559,-0.00209447260415711,0.81403844712034,0.0731517463131049,0.887190193433445
75.7824999999392,26400,-0.242016687339143,0.100038001216573,7.03412299820934,5.8784,1404,1562,1456,1517,0.0284829409263949,-0.0902178717198375,-0.00374223235165714,-0.0831645383784195,-0.827208401775569,-9.68864181800396,0.714565174086296,0.341915843520105,-10.2903765091832,0.0463481345981288,0.0269583646173427,-0.139085248445276,-0.612733561745669,0.0181256772095271,-1.14278528440026,0.122745452431521,0.102578090637776,0.00422319099404023,-0.00174566157266384,0.810627178372855,0.0731155633895654,0.88374274176242
75.8324999999392,26420,-0.265014445132387,0.100047582723839,7.05381846103761,5.8784,1404,1562,1455,1517,0.0262007084798434,-0.0863009885049684,-0.0048110265133348,-0.0787440122189123,-0.748641591879067,-9.77371501075246,0.683627040567845,0.342482793306084,-10.3474962930142,0.0477465690849756,0.0225553409597661,-0.139496410678042,-0.624389218432702,0.00495232062845656,-1.14327975519292,0.123434988906603,0.102578090637776,0.00442315825402918,-0.00139645430613812,0.813875605489181,0.0730842018312898,0.886959807320471
75.8849999999391,26440,-0.265014445132387,0.100047582723839,7.05381846103761,5.8784,1404,1562,1455,1517,0.0182309210302015,-0.0882803098059109,-0.00633881909236826,-0.0118743866611254,-0.776075835524969,-9.73576712960351,0.652144556525389,0.342408427075203,-10.4046906144592,0.0488168543444507,0.0182413356022516,-0.139983056449891,-0.634318449441343,-0.00805391041322507,-1.14436424788716,0.123089138257874,0.102578090637776,0.00462450186753234,-0.00174582876996565,0.81393470964829,0.0730556199701063,0.886990329618396
75.9324999999391,26460,-0.265014445132387,0.100047582723839,7.05381846103761,5.9563,1404,1562,1455,1516,0.0151443346371783,-0.0958888718098341,-0.00781692549140799,-0.0864782351255629,-0.836689115584488,-9.74254254155682,0.620234584823699,0.341704037880914,-10.4619428077073,0.049608442486692,0.0136786868113343,-0.140569037206844,-0.641968932730099,-0.0202629934555446,-1.14579759507557,0.123089138257874,0.103937445637776,0.00462450186753234,-0.00174582876996565,0.816587010486939,0.0745876189850519,0.891174629471991
75.982499999939,26480,-0.265014445132387,0.100047582723839,7.05381846103761,5.9563,1404,1562,1455,1516,0.0209179637703376,-0.0983850368314757,-0.00578279465283515,-0.0909455138058324,-0.753782074494514,-9.7642203178392,0.588002712223173,0.340352577965521,-10.5192777046469,0.0505265463230889,0.00883086402749267,-0.141148375362305,-0.646855073806367,-0.0334509875717697,-1.14758655330041,0.123089138257874,0.103937445637776,0.00462450186753234,-0.00174582876996565,0.815561036096926,0.0742486625805916,0.889809698677517
76.032499999939,26500,-0.2649917821391,0.0600290521255028,7.05385501694514,5.9563,1405,1561,1455,1516,0.0256006861882341,-0.0966693805321881,-0.00437549044162078,-0.0214506926753055,-0.795095155675068,-9.7306555311314,0.555568355498392,0.338354203125537,-10.5767246261737,0.0517270234595495,0.00391121705958387,-0.141651551196414,-0.649850545013611,-0.0466383233079007,-1.15031742948475,0.123089776158461,0.103937445637776,0.00462410639829948,-0.00104750541102467,0.815690196794782,0.0742114962529463,0.889901693047728
76.0849999999389,26520,-0.2649917821391,0.0600290521255028,7.05385501694514,5.9563,1405,1561,1455,1516,0.023974406134201,-0.0879361555800101,-0.00303912999794184,-0.0735828670805523,-0.836124642922432,-9.75623007194468,0.523058883175736,0.335714849029647,-10.6342845267167,0.0530280632171037,-0.000664803978024095,-0.142075597280467,-0.650385888838268,-0.0589902237330214,-1.15223534727049,0.123089776158461,0.103937445637776,0.00462410639829948,-0.00104750541102467,0.814840047339389,0.0741739734940195,0.889014020833409
76.1324999999389,26540,-0.299516714025355,0.0800581046558991,7.05372272232295,5.9563,1405,1562,1454,1516,0.00993219940980537,-0.0885939786071553,-0.00245459425182289,-0.07971134483729,-0.734737785862967,-9.7817652263049,0.490587870174811,0.332449255449041,-10.6919640617752,0.0539818809502758,-0.0050003177256836,-0.142441873376083,-0.648000091655903,-0.0712678261528049,-1.15524150443232,0.123087467617303,0.103937445637776,0.00522656645971462,-0.0013970123776801,0.815252646744906,0.0741443181707947,0.889396964915701
76.1824999999388,26560,-0.276528182582255,0.0800502757057611,7.03403721142093,5.9563,1405,1562,1455,1516,0.0127385741763856,-0.0997583233197915,-0.00111185503870156,-0.0219266016518481,-0.774357271920006,-9.69968313702425,0.458270841867258,0.328576282441945,-10.7497373899793,0.0544870121271206,-0.00971528013879578,-0.142788916968032,-0.64406402457964,-0.0838397498031812,-1.15531496239954,0.122743955452063,0.103937445637776,0.00482541658603253,-0.00139687576250019,0.812899903851251,0.0741167975530286,0.88701670140428
76.2349999999388,26580,-0.264991778316779,0.0600285832483543,7.0538550231639,5.9563,1405,1561,1455,1516,0.0189672941911335,-0.10014050842207,-0.000571205168010101,-0.0882127692649011,-0.824727954600991,-9.7652747288981,0.426224223480967,0.324089955694086,-10.8075572073273,0.0552720387674263,-0.0147262846054689,-0.143103041300747,-0.637649455364842,-0.0957175864446506,-1.15786232339224,0.123089776266978,0.103937445637776,0.00462410633159998,-0.00104749722911843,0.814705966039675,0.0740881809378101,0.888794146977486
76.2824999999387,26600,-0.264991778316779,0.0600285832483543,7.0538550231639,5.9563,1405,1561,1455,1516,0.0278782955698136,-0.0961996778836169,-0.000420031544399763,-0.0903126250717929,-0.756607183308635,-9.78255600480795,0.394566810268351,0.318994778259582,-10.8655110239791,0.0564701395721543,-0.019664882535591,-0.143402653458327,-0.628213708833004,-0.107755945636973,-1.16032080569381,0.123089776266978,0.103937445637776,0.00462410633159998,-0.00104749722911843,0.814890998095623,0.0740587454851726,0.888949743580795
76.3349999999387,26620,-0.276510951053837,0.0400254356867192,7.03406454195417,5.9563,1406,1561,1455,1516,0.0217060501527061,-0.0879819344461796,6.94597651069861E-05,-0.0101153787955064,-0.780505657810223,-9.71576940525499,0.36342291506476,0.313305914896449,-10.9235498311619,0.0577338074169032,-0.024246545597695,-0.143674145264034,-0.616925463153074,-0.119927780532803,-1.16086747901216,0.122744432369868,0.103937445637776,0.00482511589586163,-0.000698442304167913,0.8125803826042,0.0740222033211554,0.886602585925355
76.3849999999387,26640,-0.264980445930407,0.0200093913991952,7.05387330275455,5.9563,1406,1560,1455,1516,0.0159279957929732,-0.0796350702523332,-0.000411610988733256,-0.0615746508741038,-0.821304912993317,-9.78734069455593,0.33291095752705,0.307031454083328,-10.9816694432169,0.0587398809179117,-0.0283941257539838,-0.143923708124,-0.603435695492802,-0.131146653586339,-1.1639289730426,0.123090095245835,0.103937445637776,0.00462390858145779,-0.000349162331350606,0.814368868868925,0.073994058343894,0.888362927212819
76.4324999999386,26660,-0.264980445930407,0.0200093913991952,7.05387330275455,5.9563,1406,1560,1455,1516,0.00526341791682663,-0.0808409611894466,-0.00116010527248443,-0.0751648611527224,-0.735443655089441,-9.79795227950971,0.303131612428261,0.300182488443405,-11.0399274339835,0.0592633863427057,-0.0323717324392466,-0.144197547274673,-0.587418708770217,-0.142538193543748,-1.16637588802762,0.123090095245835,0.103937445637776,0.00462390858145779,-0.000349162331350606,0.814330778511846,0.0739720635480864,0.888302842059932
76.4849999999386,26680,-0.241982996134553,0.020007621680449,7.0341778253094,5.9563,1406,1560,1456,1516,0.00707922897271192,-0.0868571755518836,-0.00156181494267237,-0.0187462016288245,-0.764085801390316,-9.71904110166288,0.274181279797188,0.292763596400511,-11.0982875622822,0.0595005775957939,-0.0365423491565934,-0.144517791659635,-0.570089436380478,-0.154387562621543,-1.1673037723,0.122746409164417,0.103937445637776,0.00422260308252012,-0.000349131449758492,0.811917665024145,0.0739495065142496,0.885867171538395
76.5349999999385,26700,-0.230454506021358,-2.32762253364733E-07,7.05397750419539,6.0342,1406,1559,1456,1515,0.0119047913792477,-0.0848304878377876,-0.00179061346300158,-0.0691327081372077,-0.835609551134834,-9.798787651814,0.24615699417155,0.284762668167716,-11.1566634546189,0.0599985816782601,-0.0408696043917042,-0.144863139123029,-0.550726646857896,-0.165836012881666,-1.16838009187291,0.123091913560977,0.105296800637776,0.00402143093004489,5.61026665861775E-09,0.817664774783376,0.0755041707846897,0.893168945568065
76.5824999999385,26720,-0.218929793420173,0.02000184191018,7.07376971960746,6.0342,1405,1559,1456,1515,0.0219760412484137,-0.0814877403787785,-0.000769152862030505,-0.0770376402283228,-0.771038794827295,-9.83358570245263,0.219161040183235,0.276163574562877,-11.2151862521218,0.0608438555067969,-0.0450541597844707,-0.145164339793339,-0.528756706231191,-0.177746008713569,-1.17274083788917,0.123437287719918,0.105296800637776,0.0038203246951542,-0.000349030592767305,0.818800601310537,0.0752226843455563,0.894023285656093
76.6349999999384,26740,-0.195922080442565,-0.0199998411785173,7.05406264152174,5.9563,1406,1558,1457,1516,0.0236500446560606,-0.0694497210635305,0.00039382295516114,-0.0130634791561654,-0.780697739484384,-9.77749706294213,0.193291241127031,0.266972773580985,-11.273845254233,0.0620377994770811,-0.0488658673932013,-0.145379610456723,-0.505494192243795,-0.189779825904521,-1.1736771160097,0.123093399207322,0.103937445637776,0.00341884010369494,0.000348998777130472,0.813941103078318,0.0738570124243038,0.887798115502621
76.6849999999384,26760,-0.195922080442565,-0.0199998411785173,7.05406264152174,6.0342,1406,1558,1457,1515,0.0180212668864195,-0.0538026791656726,0.00279590596843813,-0.038754691483965,-0.824759813392809,-9.8006451756207,0.168637682505406,0.257195896111483,-11.3325770730369,0.0631806366329825,-0.0519138571336379,-0.145484548724455,-0.480553010856338,-0.201301720664315,-1.17561527850576,0.123093399207322,0.105296800637776,0.00341884010369494,0.000348998777130472,0.815461576470626,0.0750876188300081,0.890549195300634
76.7349999999383,26780,-0.195922080442565,-0.0199998411785173,7.05406264152174,6.0342,1406,1558,1457,1515,0.00110122239637089,-0.0521308172138288,0.00362648379968795,-0.0490187953820075,-0.749576134286303,-9.80168184660719,0.145274630583866,0.246848401639935,-11.3913962834289,0.0636491576190262,-0.0545213877370185,-0.145510626096536,-0.453797645824296,-0.212542959763344,-1.17710384080111,0.123093399207322,0.105296800637776,0.00341884010369494,0.000348998777130472,0.815193089466666,0.0750625807207125,0.890255670187379
76.7849999999383,26800,-0.161377872791209,-4.28738771061282E-12,7.05413795196309,6.0342,1405,1558,1458,1515,0.00258305144816131,-0.0627245792969532,0.00365645498879599,-0.0173492526350617,-0.769814913822372,-9.76868253918732,0.123268439689542,0.235946941369003,-11.4503389147879,0.0636337803330797,-0.0573860912363583,-0.14553557074191,-0.426152979502476,-0.223810191883283,-1.18000212960261,0.123094713374524,0.105296800637776,0.00281604368017877,1.54864015557976E-09,0.815164387924384,0.0750470547960446,0.890211442720428
76.8349999999383,26820,-0.149851901369412,-0.0199917709287984,7.07392094381403,6.0342,1405,1557,1458,1515,0.0100658570508139,-0.0598202743955155,0.00424507544082806,-0.0527069655653919,-0.806051722773955,-9.83340403908478,0.102682411180967,0.224477070664266,-11.5094000631927,0.0639561566008638,-0.0604805062431201,-0.14553101465982,-0.397173719182178,-0.235058383431866,-1.18279030655901,0.123439926582323,0.105296800637776,0.00261491547886843,0.000348857951272872,0.817552495974017,0.0750252677464829,0.892577763720499
76.8824999999382,26840,-0.11530388957983,-0.0399735787423608,7.0739686368862,5.9563,1405,1556,1459,1516,0.0187635341232998,-0.0519676486052573,0.00369455894859293,-0.0533768120411832,-0.763207403186449,-9.81656634863703,0.0835866309888704,0.212435291179845,-11.5686055815657,0.0646749237351979,-0.0633515700769843,-0.145493450244673,-0.366429918435778,-0.246283617270676,-1.18529618337728,0.123440758826432,0.103937445637776,0.00201205267314022,0.00069754049761955,0.814986964780819,0.0737244331246649,0.888711397905484
76.9349999999382,26860,-0.11530388957983,-0.0399735787423608,7.0739686368862,6.0342,1405,1556,1459,1515,0.0185007938216845,-0.0386848625277661,0.00420829319117455,-0.00501493581733803,-0.787883900395138,-9.81246630850804,0.066045516716269,0.199836662872881,-11.6279292307921,0.0656488651895518,-0.0656090775258518,-0.145441965582944,-0.334909202819555,-0.25766041445125,-1.1875684687915,0.123440758826432,0.105296800637776,0.00201205267314022,0.00069754049761955,0.817097732062268,0.074970637145358,0.892068369207626
76.9849999999381,26880,-0.103772283373127,-0.0199832165210577,7.09375267460153,6.0342,1404,1556,1459,1515,0.0151790996000918,-0.0313573466686285,0.00377054874371545,-0.0273365645287253,-0.802140404328342,-9.86781554236145,0.0501151132435587,0.186692153715024,-11.6874083838219,0.0665240921463431,-0.0673601790348692,-0.145356160509309,-0.302269413319035,-0.268114244594784,-1.19161903916311,0.123785990284565,0.105296800637776,0.00181082614483324,0.000348708676857818,0.819426168184038,0.0749504744065491,0.894376642590588
77.0349999999381,26900,-0.0692144149753961,-0.0399569263946677,7.09378062372883,6.0342,1404,1555,1460,1515,0.0110083745200485,-0.0277949582304372,0.00337367403033337,-0.0275339980769077,-0.771504946881721,-9.8505755090514,0.0358379357987448,0.173023244080995,-11.7470705979643,0.0671159428594824,-0.0688651690856465,-0.145280869620069,-0.268773235736501,-0.27854195577418,-1.1943048999015,0.123786477996836,0.105296800637776,0.00120779134129285,0.000697249914152295,0.819066747037909,0.0749328335423961,0.893999580580305
77.082499999938,26920,-0.0692144149753961,-0.0399569263946677,7.09378062372883,6.0342,1404,1555,1460,1515,0.00926757854316998,-0.0227945900261053,0.00266499210222237,-0.000980163759304653,-0.778878926582761,-9.84535056341303,0.0232411394490166,0.158838132928379,-11.8068642583786,0.0676244773094791,-0.0701257248233685,-0.145213841821944,-0.234926044895206,-0.288875486446715,-1.1973809161343,0.123786477996836,0.105296800637776,0.00120779134129285,0.000697249914152295,0.818978801704488,0.074915379747982,0.89389418145247
77.132499999938,26940,-0.0346388353221712,-0.0199730918896281,7.09380836710931,6.0342,1403,1555,1461,1515,0.00930380340590276,-0.0206720515919645,0.0021059331560515,-0.0238978094144933,-0.783799179980696,-9.85099742186414,0.0123516067438512,0.144144446724892,-11.8667802117544,0.0680668642129284,-0.0711756573317357,-0.145166351677517,-0.200677691302656,-0.298844428321617,-1.19907493181596,0.123786962118825,0.105296800637776,0.000604447476344073,0.000348532002039347,0.818802811416686,0.0749003462893195,0.893703157706005
77.1849999999379,26960,-0.0346388353221712,-0.0199730918896281,7.09380836710931,6.0342,1403,1555,1461,1515,0.0154803332364471,-0.0175324088413404,0.0012152313801576,-0.0148317315344806,-0.774689493672046,-9.82644094949139,0.00318574845942998,0.128955874134994,-11.9267963677646,0.0687161658662352,-0.072167504654555,-0.145150739522242,-0.165859243402605,-0.308606865990201,-1.20140048545229,0.123786962118825,0.105296800637776,0.000604447476344073,0.000348532002039347,0.818455294568959,0.074887163252925,0.893342457821884
77.2324999999379,26980,-0.0115873292943294,-0.0199713452605575,7.0740511734493,6.0342,1403,1555,1462,1515,0.0198388746616496,-0.0119428478865645,0.000805687677103443,-0.00382711645395417,-0.793177564117433,-9.78746566254937,-0.00423733730662454,0.11328712058139,-11.9868804327497,0.0695938931124323,-0.0729099585657525,-0.145154546660531,-0.131025689322136,-0.318132743119701,-1.20152278426909,0.123442199089458,0.105296800637776,0.000202198696158238,0.000348501523362063,0.81586045009967,0.0748699484758065,0.890730398575476
77.2849999999378,27000,-6.31408844453839E-05,-0.0399366199686278,7.0938077188494,6.0342,1403,1554,1462,1515,0.0193864107052618,0.00235744892053566,-0.00026350493486605,0.000697871788980398,-0.791182908835631,-9.83617385734612,-0.00990701798803029,0.0971537123678863,-12.0469948869002,0.0706360753816904,-0.0731411961080435,-0.145154660965882,-0.0957687271597487,-0.327101439369189,-1.20321785735154,0.12378695080669,0.105296800637776,1.10160840576583E-06,0.000696895567017893,0.818318498306081,0.0748534096428163,0.893171907948897
77.3324999999378,27020,0.0345298143434504,-0.0199631347317937,7.09380708017235,6.0342,1402,1554,1463,1515,0.0188101167322398,0.0078326932974197,-0.00154010937401603,0.0137547840129437,-0.783110850957434,-9.81244451212633,-0.0138174561785565,0.0805852329951906,-12.1072029961465,0.0715668625859035,-0.0728756478287465,-0.14518169882183,-0.060681981139135,-0.335541782948725,-1.20488053811708,0.123786939661775,0.105296800637776,-0.000602545460321032,0.000348358249635155,0.817973526829025,0.0748427586590106,0.892816285488035
77.3824999999377,27040,0.0575982934312471,-0.0199612008943903,7.07403104477024,6.0342,1402,1554,1464,1515,0.0173448544044099,0.0111394409410529,-0.00248688194495216,0.00455482671324736,-0.793002003679144,-9.77247633034561,-0.0159811365056125,0.0636103061395986,-12.1674649927106,0.0724175242902736,-0.0723704743827133,-0.145251054637971,-0.0260234199359177,-0.343426543654718,-1.2049941683518,0.123441847844009,0.105296800637776,-0.00100509042040306,0.000348324504172455,0.815367941981632,0.0748335486774145,0.890201490659046
77.4324999999377,27060,0.0575982934312471,-0.0199612008943903,7.07403104477024,6.0342,1402,1554,1464,1515,0.0161232466860591,0.0165275701022629,-0.00308681172164697,0.00847234231937111,-0.774766548991793,-9.78028703648814,-0.016423007646357,0.046247032553254,-12.2276844213617,0.0732898327917882,-0.0716532621272623,-0.145338078299931,0.00830304431461977,-0.350960256653588,-1.2038364918306,0.123441847844009,0.105296800637776,-0.00100509042040306,0.000348324504172455,0.8153856397715,0.0748236571614008,0.8902092969329
77.4849999999377,27080,0.0922059271750643,1.86779613057411E-07,7.07400223429384,6.0342,1401,1554,1465,1515,0.0185406693249071,0.0215882744403591,-0.00313365516761886,0.0301258332658001,-0.779573071834766,-9.7807011561741,-0.0151682175585204,0.028517980354189,-12.2878076634902,0.0741854115641344,-0.0706939354986983,-0.145423827809411,0.0418589311842803,-0.358124437589535,-1.20104288330074,0.123441345101195,0.105296800637776,-0.00160899362923268,-1.71073890546936E-09,0.815396337971889,0.0748128025285969,0.890209140500486
77.5349999999376,27100,0.115289238174587,-2.86886032268009E-12,7.05420937726029,6.0342,1401,1554,1466,1515,0.0220915325030125,0.0225443860994234,-0.00214312125654547,0.00137264608500653,-0.789120166709328,-9.73214148199483,-0.0122403739725078,0.0104550455527602,-12.3478500549916,0.0751805811620403,-0.0696103778390175,-0.145495353290527,0.0750448829486364,-0.364479715280762,-1.20056690031067,0.12309595974596,0.105296800637776,-0.00201179740617436,1.54861541963314E-09,0.811325365731612,0.0744775003512882,0.8858028660829
77.5849999999376,27120,0.115289238174587,-2.86886032268009E-12,7.05420937726029,6.1121,1401,1554,1466,1514,0.025707909398497,0.0304312569802096,-0.000329705388676175,0.00634613495448622,-0.791153616376906,-9.73897519683941,-0.00740202333370488,-0.0088460593523712,-12.4107949858525,0.0764904339093967,-0.0682086361873125,-0.145485499223954,0.109146952383996,-0.370748793594603,-1.19743128441357,0.12309595974596,0.106656155637776,-0.00201179740617436,1.54861541963314E-09,0.81494638214103,0.0760745868181592,0.891020968959189
77.6349999999375,27140,0.138379805580495,0,7.03440907437065,6.0342,1401,1554,1467,1515,0.0262354292877963,0.0383871131478257,-0.000603845309917108,0.0465253899015355,-0.781321745721616,-9.67053300659205,-0.00115153347102818,-0.0275083283947292,-12.4706020518239,0.0777819581483676,-0.066510619853074,-0.145386208406886,0.140777603375381,-0.375738602437353,-1.19430562242009,0.122750444460536,0.105296800637776,-0.00241472780740746,1.54856534329006E-09,0.809854101645881,0.0747828084188378,0.884636910064719
77.6874999999375,27160,0.14991050427532,0.0199492984993131,7.05415261472139,6.0342,1400,1554,1467,1515,0.026631211081543,0.0410620436321459,-0.000701315555884387,0.0231756382948981,-0.808872469258966,-9.75212652539422,0.00665848314982939,-0.0463943155360553,-12.5302289233253,0.0790492704834287,-0.0645078250564787,-0.145256325712645,0.171397586113895,-0.379574364105652,-1.19157366427286,0.123094969239656,0.105296800637776,-0.00261593849963216,-0.00034811371024765,0.813100929663128,0.0747809283684784,0.887881858031606
77.7349999999374,27180,0.173008662472621,0.0199472191029088,7.03434322627517,6.0342,1400,1554,1468,1515,0.02629510734475,0.0440391153145323,0.000401870134193783,0.00769867341645947,-0.766378856780775,-9.69088039166115,0.0159817185214465,-0.0654663133894016,-12.5897518566498,0.0803392907580495,-0.0623667572983443,-0.145077912345678,0.201302994446398,-0.382918149940789,-1.18873299205691,0.12274929541127,0.105296800637776,-0.00301900136017504,-0.000348077424780409,0.810446530506815,0.0747770113239743,0.885223541830789
77.7849999999374,27200,0.173008662472621,0.0199472191029088,7.03434322627517,6.0342,1400,1554,1468,1515,0.0296090815749943,0.0503940089532988,0.000724378975551496,0.0598561465342897,-0.781594685878066,-9.68373791773647,0.0267588049088341,-0.0846793150768728,-12.6490925261848,0.0817782433934137,-0.0600269693238455,-0.14485893930019,0.22976775425958,-0.385517629399705,-1.18496858560394,0.12274929541127,0.105296800637776,-0.00301900136017504,-0.000348077424780409,0.810124877748534,0.0747738909250645,0.884898768673598
77.8374999999373,27220,0.207643197765121,0.0398844343269516,7.03425872981625,6.0342,1399,1554,1469,1515,0.0285243518989602,0.0553648469058165,0.00106296103732651,0.0262660813082597,-0.81685248395537,-9.72520265766824,0.0389378800048086,-0.103989238507493,-12.7082516749767,0.0831728394553461,-0.0573985181415755,-0.144597660420004,0.257017813524188,-0.386839711092601,-1.18137596121593,0.122747820948061,0.105296800637776,-0.00362337400102918,-0.000695981830439953,0.810952350758539,0.0747746542530708,0.88572700501161
77.8849999999373,27240,0.207643197765121,0.0398844343269516,7.03425872981625,6.0342,1399,1554,1469,1515,0.0312613822007677,0.056523885349963,0.00133707021414426,0.0117831648911263,-0.765728034911805,-9.70566044641842,0.0524522936457566,-0.123350307289724,-12.7672439426717,0.084644207938,-0.0546255425433281,-0.144303837734067,0.283322768552401,-0.387252469647909,-1.17829543558104,0.122747820948061,0.105296800637776,-0.00362337400102918,-0.000695981830439953,0.810981093411994,0.0747796190875456,0.885760712499539
77.9349999999373,27260,0.207643197765121,0.0398844343269516,7.03425872981625,6.0342,1399,1554,1469,1515,0.0321677223935519,0.0619038614362122,0.00159914015347209,0.0725655060425546,-0.781585787233906,-9.69057964701041,0.0672361792545065,-0.142707865415696,-12.8260963822472,0.0862540878639398,-0.0516846434437047,-0.14397809090352,0.307999154963494,-0.386969584913589,-1.17578897094157,0.122747820948061,0.105296800637776,-0.00362337400102918,-0.000695981830439953,0.810398732036811,0.0747824257572079,0.885181157794019
77.9874999999372,27280,0.230755875008843,0.0398804951352356,7.01443310019665,6.0342,1399,1554,1470,1515,0.0343493285760508,0.0669262923941368,0.00244700666461738,0.0317736941026641,-0.827322811456266,-9.68299132765197,0.0832223604339644,-0.162016671029114,-12.8847857399626,0.0878893700204942,-0.0484901931201462,-0.143600514492056,0.330992135085508,-0.385343130093613,-1.17155382700885,0.122401863711199,0.105296800637776,-0.00402669021893212,-0.00069591309154451,0.808657203858341,0.0747867836118058,0.883443987470147
78.0349999999372,27300,0.219214342889069,0.0598300848259197,6.99468346598079,6.0342,1399,1555,1470,1515,0.0311515009477612,0.0697691492144519,0.00371535346348467,0.0197669630404019,-0.762949652651205,-9.61870340481467,0.100326973722971,-0.181232204194605,-12.9432533164821,0.0895063829258547,-0.0450441091838943,-0.143142789258058,0.352885002025459,-0.382891421266201,-1.16663315286479,0.122057232594133,0.105296800637776,-0.00382529048344208,-0.00104403343164697,0.806159518123983,0.0747929354061824,0.880952453530165
78.0874999999371,27320,0.230738382602259,0.0797610225054564,7.014404269391,6.0342,1398,1555,1470,1515,0.0262888220694574,0.0673544511666555,0.00515372664318156,0.0769620980601153,-0.768615814215831,-9.68241973029219,0.11847086206808,-0.200299538783463,-13.0014568568693,0.0909083724219323,-0.0416142740889642,-0.14260494012246,0.372858159315386,-0.379653172541631,-1.16229613311846,0.122401360613641,0.105296800637776,-0.00402638497643722,-0.00139182829415486,0.808479305013003,0.0748011468021542,0.883280451815157
78.1474999999371,27340,0.242282560316379,0.0598109301769264,7.03415561654127,6.0342,1398,1554,1470,1515,0.0351072642103511,0.0657122960738607,0.00632624786040317,0.0738574274913258,-0.785496889497011,-9.72394223562509,0.14151534684848,-0.222905237532293,-13.0710927044901,0.0927214146548634,-0.0378141294265187,-0.141905247630338,0.395006245984296,-0.373992800801441,-1.15957182132002,0.122746021621413,0.105296800637776,-0.00422783087754864,-0.00104369918302201,0.811183096431939,0.0748174780332192,0.886000574465158
78.194999999937,27360,0.25385763262029,0.0797533480519325,6.99457149409741,6.0342,1398,1555,1471,1515,0.0413534079985557,0.0668952173609845,0.00759429487997511,0.0242808955441574,-0.840570809321261,-9.65262045543162,0.161693587467342,-0.241452887469697,-13.1290210675467,0.0945399273901831,-0.0345419717855661,-0.141257461590113,0.411589569964193,-0.367947021994329,-1.15647537013294,0.122055278684768,0.105296800637776,-0.00442981588925189,-0.00139169437494089,0.806689000658013,0.0748295421293593,0.881518542787372
78.247499999937,27380,0.265403319347498,0.0598053060995481,7.01432109227686,5.9563,1398,1554,1471,1516,0.0431643102195813,0.0767657459580304,0.00797370715845056,0.0158778606587746,-0.758431539119995,-9.69044161259861,0.182667725682941,-0.259688101801139,-13.18673035171,0.0966587569616446,-0.0310324595079919,-0.140500714806517,0.427132718942896,-0.360791276695047,-1.15244984153831,0.122399909172999,0.103937445637776,-0.00463128812264164,-0.00104360104287177,0.807681838234998,0.07357269998735,0.881254538222348
78.2974999999369,27400,0.265379409764371,0.0996754034037447,7.01428253272413,5.9563,1397,1555,1471,1516,0.0388862412532995,0.0851659510413962,0.00697345451407476,0.0956689948112207,-0.766569947676022,-9.67244940737916,0.204361208996574,-0.277519511549862,-13.2443176347793,0.0987645796374905,-0.0269930195221569,-0.139729510852472,0.440559948393333,-0.352336149230872,-1.15127183512169,0.122399236308804,0.103937445637776,-0.0046308709004161,-0.00173933424082998,0.806662119441319,0.0735676763894711,0.88022979583079
78.3474999999369,27420,0.242258266256771,0.0996849423601893,7.03411706858157,6.0342,1397,1555,1470,1515,0.0294556738335702,0.081497279410455,0.00571935076546397,0.0428534682796318,-0.827545431366437,-9.7609650806054,0.226693132928128,-0.294869289415458,-13.3018670627653,0.100448264466264,-0.0228889735621839,-0.139024823364682,0.452191619196809,-0.341821120545766,-1.1512236324288,0.122745348959516,0.105296800637776,-0.00422740694620847,-0.00173950069561997,0.812352893339573,0.0748900248112329,0.887242918150806
78.3949999999368,27440,0.242258266256771,0.0996849423601893,7.03411706858157,6.0342,1397,1555,1470,1515,0.0264007074336591,0.0705237187196083,0.00466969979556684,0.00823893567089165,-0.755299967183481,-9.73164327044061,0.24957084864493,-0.311684781280666,-13.3594347520001,0.101745574131732,-0.019120016256172,-0.138408845157612,0.46254477951993,-0.330605210090935,-1.1513426739324,0.122745348959516,0.105296800637776,-0.00422740694620847,-0.00173950069561997,0.812682559047329,0.0749246915585792,0.887607250605908
78.4474999999368,27460,0.253775084233111,0.119602597555702,7.05382172333768,6.0342,1396,1555,1470,1515,0.0313821794455401,0.0671752300348699,0.00383900993755221,0.0766608172100071,-0.773754914868522,-9.78386974281859,0.272904166319675,-0.32792139033072,-13.4170190376833,0.103201288467713,-0.0157065056871568,-0.137857233752838,0.470777096752921,-0.318852167034986,-1.15261177206027,0.12308919518501,0.105296800637776,-0.0044283754198956,-0.00208706377878164,0.814680216591043,0.0749550049343531,0.889635221525396
78.4974999999367,27480,0.276896606417881,0.119591192925282,7.03398549854672,6.0342,1396,1555,1471,1515,0.0488805760436217,0.06547373889087,0.00333638613033767,0.0194615250921023,-0.855419883829711,-9.75195002276524,0.296617752598943,-0.343529145408346,-13.4746860779662,0.105168860080629,-0.0125104485609297,-0.137344967423967,0.477275794216855,-0.305478619482833,-1.15369382299918,0.122743053062408,0.105296800637776,-0.00483184598201983,-0.00208686476798082,0.81292452182658,0.0750101797632496,0.88793470158983
78.5449999999367,27500,0.25380509051693,0.0797353359094323,7.05387011037318,6.0342,1397,1554,1470,1515,0.0503455960077984,0.0819590202903903,0.00202912747399036,0.0232816942343464,-0.793012231198924,-9.74416540372352,0.320630438977499,-0.358453162563162,-13.5324563194454,0.107729760942894,-0.00889306313862354,-0.136803654324082,0.482954839652244,-0.29087363054906,-1.15705454358157,0.12309003953878,0.105296800637776,-0.00442889902954826,-0.00139138006305425,0.816797619710239,0.0753267180974011,0.892124337807641
78.5949999999366,27520,0.242258647750305,0.0996847787478192,7.03411705422391,5.9563,1397,1555,1470,1516,0.0350827151067809,0.0864610001809012,0.00261284516260598,0.0984522462828627,-0.77070280329202,-9.71327153956188,0.344864213267079,-0.372625127563913,-13.5903098384929,0.109888811032833,-0.00467226854881188,-0.136200347997115,0.486354597262021,-0.275699837851251,-1.15688034341142,0.122745348708975,0.103937445637776,-0.00422741360327064,-0.0017394978405841,0.810126856430491,0.0737663908627511,0.883893247293242
78.6449999999366,27540,0.242258647750305,0.0996847787478192,7.03411705422391,5.9563,1397,1555,1470,1516,0.0250204098673651,0.0841959318272375,0.00306519789922881,0.0441923358581453,-0.813718731204688,-9.75040207785599,0.369228825135904,-0.385988445460591,-13.6481418804866,0.111377860779216,-0.000437903313356835,-0.135577019797566,0.487700477563309,-0.258746082201418,-1.1565602635889,0.122745348708975,0.103937445637776,-0.00422741360327064,-0.0017394978405841,0.810965805045919,0.0737980789368553,0.884763883982774
78.6949999999366,27560,0.230659720206477,0.119613617074568,7.07365086169532,6.0342,1396,1555,1469,1515,0.0202971695148872,0.0675131136477468,0.00306378142178388,0.00572939785620391,-0.754602347454544,-9.81181526517558,0.393624632158582,-0.398481640141947,-13.7060595826301,0.112416730168325,0.00335373998966799,-0.13501944850524,0.487782057567942,-0.240737905341546,-1.16050794096603,0.123435213649351,0.105296800637776,-0.00402501231763084,-0.00208725606938586,0.818638909010468,0.0751151720493311,0.893754081059799
78.7449999999365,27580,0.253774710550683,0.119602437272431,7.05382174493287,6.0342,1396,1555,1470,1515,0.0292142204949936,0.0624630852173502,0.00330883862466601,0.0717817526765824,-0.782250461571261,-9.75670942597345,0.41796395965556,-0.410056979267122,-13.7641782902734,0.113630763702393,0.00653362739339831,-0.134530616553501,0.48573328540021,-0.222521859744404,-1.16365626632397,0.123089195561846,0.105296800637776,-0.00442836889913724,-0.00208706098183856,0.815140844107898,0.0751521782064689,0.890293022314367
78.7974999999365,27600,0.219144081968274,0.0996943578059948,7.05394443800439,5.9563,1397,1555,1469,1516,0.04056259169381,0.0646572195039797,0.00285806215353841,0.0269148967802539,-0.833765393111408,-9.79617477954817,0.442172875848951,-0.420696020963915,-13.8223229760493,0.115407194221668,0.00960966472746462,-0.134022081345385,0.482194062452752,-0.203008827490036,-1.16238750918867,0.123091336555944,0.103937445637776,-0.0038240644303742,-0.00173966499514927,0.814068902719858,0.0739218583701769,0.887990761090035
78.8449999999364,27620,0.219144081968274,0.0996943578059948,7.05394443800439,6.0342,1397,1555,1469,1515,0.0363162775851577,0.071814097604161,0.00284598296372529,0.0167397779853831,-0.782170130390939,-9.75406335054286,0.466181435889623,-0.430341286827555,-13.8804842834428,0.117349605467592,0.013012412149175,-0.133499325962641,0.477836457155619,-0.182523243076616,-1.1638685890416,0.123091336555944,0.105296800637776,-0.0038240644303742,-0.00173966499514927,0.816492356845006,0.0752841843762778,0.891776541221284
78.8974999999364,27640,0.219144081968274,0.0996943578059948,7.05394443800439,5.9563,1397,1555,1469,1516,0.027529524601538,0.0735819888019153,0.00275456786650776,0.0842744233488183,-0.774432775069886,-9.76239230059024,0.489913809124215,-0.438940211747517,-13.938709580122,0.118977173229937,0.0166374129494471,-0.132919192599424,0.471415580047228,-0.161293888221183,-1.16513123548199,0.123091336555944,0.103937445637776,-0.0038240644303742,-0.00173966499514927,0.813668573852425,0.0739944751260152,0.88766304897844
78.9449999999363,27660,0.196078396340173,0.0997262911110347,7.01446914303768,5.9563,1398,1556,1469,1516,0.0194579090612788,0.0705560326524222,0.00366675144194805,0.0372969417294159,-0.812678588138482,-9.68990983687985,0.513293750108744,-0.446444694753414,-13.9969299869738,0.120194860021902,0.0201808294043871,-0.132341939916355,0.463355858712927,-0.139061707400947,-1.16262447637521,0.122402492658775,0.103937445637776,-0.00342156821616384,-0.00174022223132221,0.808956655153568,0.0740344180069768,0.882991073160545
78.9949999999363,27680,0.172973057816068,0.0997357624530596,7.03428581353327,5.9563,1398,1556,1468,1516,0.0100632292881842,0.0570626181273336,0.00483741287164546,0.00847110254925743,-0.747326313911984,-9.72829031749318,0.536242062594475,-0.452838036442881,-14.0550246926508,0.120860177064285,0.0233755942362904,-0.131739889390371,0.45429978180472,-0.116352629356669,-1.16137800516488,0.122748293558923,0.103937445637776,-0.0030183800589182,-0.00174038750624053,0.812026562519472,0.074080933589859,0.886107496109331
79.0449999999362,27700,0.172973057816068,0.0997357624530596,7.03428581353327,5.9563,1398,1556,1468,1516,0.0108157285249228,0.0483533429329299,0.00633533356620497,0.0549780939075096,-0.764285822104757,-9.74304643676942,0.558687284241232,-0.45808555347215,-14.1130689791268,0.121394114787525,0.0259640410182531,-0.131145267532939,0.443500111063604,-0.0935701793244114,-1.16040919071711,0.122748293558923,0.103937445637776,-0.0030183800589182,-0.00174038750624053,0.811765740660501,0.0741223276998525,0.885888068360354
79.0949999999362,27720,0.161453915085699,0.0798015542642757,7.01456325890595,5.9563,1399,1556,1468,1516,0.0216816713166367,0.0447860121550649,0.00863872120544609,0.0123548906138206,-0.820280218972472,-9.69914721048002,0.580571701666299,-0.462176796318736,-14.1710387367815,0.122262512761347,0.0281330473970657,-0.130508692527341,0.431587277127153,-0.0702389022499875,-1.15776542755677,0.122404134980677,0.103937445637776,-0.00281737101827325,-0.00139253557334627,0.809519045040353,0.0741607895630559,0.883679834603409
79.1449999999361,27740,0.161453915085699,0.0798015542642757,7.01456325890595,5.9563,1399,1556,1468,1516,0.023115308145679,0.0480383730973646,0.0116070329050882,0.00441759287388244,-0.774200306011149,-9.69090533489991,0.601843997493137,-0.465107318336916,-14.2288424133088,0.123409606814758,0.0303860617494569,-0.129721281773542,0.419114583787073,-0.0466942757552927,-1.154352363449,0.122404134980677,0.103937445637776,-0.00281737101827325,-0.00139253557334627,0.809870844459138,0.0741936387077714,0.884064483166909
79.1974999999361,27760,0.138386123587687,0.0798263486432446,6.97506601578739,5.8784,1400,1557,1468,1517,0.0184533933105348,0.0532044607628523,0.0114389934253823,0.0597292721502492,-0.769815689600076,-9.60020826358478,0.622456250461627,-0.466830901498585,-14.2864570543674,0.124541671003171,0.0328409172617665,-0.128836026098429,0.405378542972033,-0.0222838932224472,-1.14954564290842,0.121714908088258,0.102578090637776,-0.00241483805663295,-0.00139296823525928,0.802295547789911,0.072983011830948,0.875278559620859
79.2474999999361,27780,0.115290620992947,0.079834150325883,6.99487023834241,5.8784,1400,1557,1467,1517,0.00844036022601047,0.0505425562099717,0.0124401248643505,0.028405187808771,-0.791453563068484,-9.68336806456233,0.642363964079875,-0.467319789838368,-14.3437346084174,0.125258026301417,0.0353518626624005,-0.127918033294335,0.390613157216024,0.00274591847501806,-1.14199252506958,0.122060491771843,0.102578090637776,-0.00201182153635473,-0.0013931043746213,0.805662866569945,0.0730248640797081,0.878687730649653
79.297499999936,27800,0.126834401614681,0.0598660793888148,7.01463871562405,5.8784,1400,1556,1467,1517,0.00193740189527624,0.0407615070856187,0.0128066058929041,0.00636004456981903,-0.747032678817018,-9.72585316114091,0.661510604254962,-0.466548927588658,-14.4007323411465,0.125455759797382,0.037517727841047,-0.127005655661514,0.375030588110655,0.0282840937164041,-1.13843768953742,0.122405451700408,0.102578090637776,-0.00221326050820398,-0.00104466153676948,0.808665394781407,0.0730742713241585,0.881739666105565
79.344999999936,27820,0.126834401614681,0.0598660793888148,7.01463871562405,5.8784,1400,1556,1467,1517,0.00214847239107595,0.0368281205541205,0.0132551390653012,0.0412403649894987,-0.764514921744978,-9.72277430442052,0.679839733937824,-0.46449655530149,-14.4575850905032,0.125612586422866,0.039366456967326,-0.126117094440567,0.35811961857706,0.0537405203930018,-1.13560525337999,0.122405451700408,0.102578090637776,-0.00221326050820398,-0.00104466153676948,0.808460674553349,0.0731188409462622,0.881579515499611
79.3949999999359,27840,0.0806802246211396,0.0598905842331318,6.99492697422246,5.8005,1401,1557,1466,1518,-7.67353210905232E-05,0.0346986320272313,0.0117319982890174,0.0169969150011843,-0.769147438864957,-9.67041922873133,0.697312910852068,-0.461159334930088,-14.5142538884757,0.125779019251194,0.0410058802897732,-0.125260917259311,0.340650728714037,0.0797859469092787,-1.13091963422307,0.12206148181295,0.101218735637776,-0.00140787011966669,-0.00104508914630282,0.803955102067483,0.0719375115721168,0.8758926136396
79.4449999999359,27860,0.0922202626295259,0.0399207790436253,7.0146954615561,5.8005,1401,1556,1466,1518,-0.00423796785990362,0.0246910640554091,0.0096856808229573,-0.00012911073448113,-0.736377953357516,-9.72698802143381,0.713902840632266,-0.456521695325656,-14.570663112002,0.125625572569751,0.0423961055951354,-0.124543478631123,0.322807876883099,0.105848789674853,-1.12597981560785,0.122406441916922,0.101218735637776,-0.00160924378291302,-0.000696616045745923,0.807034152242527,0.0719920425590328,0.87902619480156
79.4949999999358,27880,0.0922202626295259,0.0399207790436253,7.0146954615561,5.8005,1401,1556,1466,1518,0.00103839569796402,0.0248682807432416,0.00758736327582706,0.028097092555854,-0.758273886148187,-9.7251199526571,0.72957236759349,-0.450577825747425,-14.6268851812132,0.125618421413587,0.0435598567015876,-0.123962929950644,0.303974388890009,0.131821076726192,-1.12281818183356,0.122406441916922,0.101218735637776,-0.00160924378291302,-0.000696616045745923,0.807024947231312,0.0720408766376282,0.87906582386894
79.5449999999358,27900,0.0576111675301801,0.0199660210037767,7.01473419811744,5.8005,1402,1556,1465,1518,-0.00223455806318369,0.0278308243356222,0.00597821998317627,0.0111083629910775,-0.769560221325179,-9.71477334896014,0.7442928852831,-0.443333099295906,-14.6829364023069,0.125720304646686,0.044764956223924,-0.123470137061373,0.284725266673105,0.157873247264488,-1.11918463256037,0.122407117869917,0.101218735637776,-0.00100531507342946,-0.000348405517950559,0.807157583793393,0.0720875325746936,0.879245116368086
79.5974999999357,27920,0.0576111675301801,0.0199660210037767,7.01473419811744,5.8005,1402,1556,1465,1518,-0.0108391126067458,0.0242022705047046,0.00483294206274114,0.00979621124306879,-0.740216737132138,-9.7133872172681,0.758040141785283,-0.434796677402481,-14.7388040372724,0.125377194847981,0.0460613620755176,-0.123035713859858,0.265072297967,0.183620957615877,-1.11549062866852,0.122407117869917,0.101218735637776,-0.00100531507342946,-0.000348405517950559,0.807396325680254,0.0721363128468225,0.879532638527076
79.6474999999357,27940,0.0460702889389128,-1.93565288303657E-07,7.05427622455793,5.8005,1402,1555,1464,1518,-0.0200360067045689,0.0208258866720985,0.00311015153011879,0.022612198665391,-0.749614251543995,-9.80298962169422,0.770782692351825,-0.424971819162729,-14.7945440930602,0.124645327373324,0.0471711738134052,-0.122689679175101,0.244552454738326,0.209354572285619,-1.11509070819305,0.123097126231304,0.101218735637776,-0.000803926742011839,4.92627962311865E-09,0.812753862087811,0.0721868742782747,0.884940736366085
79.6974999999356,27960,0.0460702889389128,-1.93565288303657E-07,7.05427622455793,5.8005,1402,1555,1464,1518,-0.0190477836438559,0.0139677558952803,0.00154357689023122,-0.00354672664223921,-0.75489447819543,-9.78349109503577,0.782489284964236,-0.413866657513832,-14.8503018879675,0.123647396511799,0.0479944784959812,-0.122471927508975,0.223571751337802,0.234736637516561,-1.11507803080499,0.123097126231304,0.101218735637776,-0.000803926742011839,4.92627962311865E-09,0.812773167572347,0.0722394417925353,0.885012609364883
79.7449999999356,27980,0.0114717415502505,-0.019969400891447,7.05428625372259,5.8005,1403,1555,1463,1518,-0.0252523865991091,0.00938384903299629,0.000822996050723517,0.00759971369255696,-0.738944864342954,-9.7877860759556,0.793138958228081,-0.401521747259647,-14.9060060738165,0.122535503166812,0.0486069725324084,-0.122334341115312,0.202401264742448,0.259061838676146,-1.11365254469606,0.123097301240227,0.101218735637776,-0.000200182090079666,0.00034846759412109,0.81300749486326,0.0722857973233862,0.885293292186647
79.7949999999356,28000,0.0114717415502505,-0.019969400891447,7.05428625372259,5.8005,1403,1555,1463,1518,-0.0293479106613548,0.00419789409059017,0.000250106958551169,0.00305519652841507,-0.75055460078502,-9.77813585908195,0.802721049694331,-0.387969587054052,-14.9616749132204,0.121176618602855,0.0489546545052025,-0.122266674927178,0.180839923635622,0.282839738475356,-1.11304950734156,0.123097301240227,0.101218735637776,-0.000200182090079666,0.00034846759412109,0.813073127724,0.0723315673284356,0.885404695052436
