t,frame,xb,xa,xc,xp,pwm1,pwm2,pwm3,pwm4,p,q,r,accx,accy,accz,x,y,z,roll,pitch,yaw,vx,vy,vz,theta1,theta2,b1s1,a1s1,pwr1,pwr2,pwrsum
1.1000000000000052,1,-0.05311165349175976,-0.997573142596401,28.512130823635015,46.152699999999996,1000,1000,1000,1000,0.0007389471648797098,-0.00017097353440183362,0.00017770757047471658,-0.001105647965172942,-0.6866507189739429,-9.782746831073705,0.0012766638758142173,0.00033015449110413586,-0.6095996814304447,0.06999640357951058,-0.0007836768559108992,3.0337612440894715e-05,0.0032694533623557395,0.0009448276416796352,4.962866015562015e-06,0.10945152702133829,0.09551808392514809,-0.0003826834483460443,-0.0002638233447355395,0.7235724824750217,0.06686816462622656,0.7904406471012483,
1.1050000000000046,2,-0.05311165349175976,-0.997573142596401,28.512130823635015,46.152699999999996,1000,1000,1000,1000,0.0005092473538818799,0.00015897526040047313,-0.005958319352173025,-0.00012579708459822207,0.05488883057542626,-2.1139386632007824,0.0012930870617268051,0.00033557778901437596,-0.6095810110522106,0.06999920685848499,-0.0007831232241833615,2.4227106058183947e-05,0.0032931299075159115,0.0015392115924666811,0.016952844777586507,0.06282000611276789,0.05235001063777568,-2.000278213287743e-10,1.5485653432900649e-09,0.3335696527856759,0.027567868934335563,0.36113752172001146,
1.1075000000000044,3,-0.05311165349175976,-0.997573142596401,28.512130823635015,46.152699999999996,1000,1000,1000,1000,0.000498563303257315,0.00034202921586943186,-0.010877920525627714,-0.00010226918327450353,-0.1062746560521477,-2.8579830955725862,0.0013013254546757579,0.00033991917438727605,-0.6095154892914425,0.07000050010834666,-0.0007810159013294219,2.9181464184119275e-06,0.003297826137371614,0.0018939207660005942,0.035185527612817444,0.06282000611276789,0.05235001063777568,-2.000278213287743e-10,1.5485653432900649e-09,0.3800989790974615,0.03547465580252278,0.4155736348999843,
1.110000000000004,4,-0.05311165349175976,-0.997573142596401,28.512130823635015,46.152699999999996,1000,1000,1000,1000,0.0003951416175182045,0.0005839047877288437,-0.01438504575132566,-4.4930146095830195e-06,-0.1857417790691226,-3.1980564697220855,0.0013095773718225436,0.00034487947111984466,-0.6094062787577089,0.07000165930653375,-0.0007776471631163077,-2.868433073360784e-05,0.0033038595084039692,0.002053873794180601,0.05205551931941764,0.06282000611276789,0.05235001063777568,-2.000278213287743e-10,1.5485653432900649e-09,0.4015039935825617,0.038415654245506456,0.4399196478280682,
1.1125000000000038,5,-0.05311165349175976,-0.997573142596401,28.512130823635015,46.152699999999996,1000,1000,1000,1000,0.00019965897443646296,0.0008474824563887005,-0.017156507895898072,0.00010796956282901112,-0.22580929756318346,-3.2213028766415137,0.0013178453892210562,0.00035008964721633905,-0.6092555927059983,0.07000244964189983,-0.0007730985755975339,-6.798764651406384e-05,0.0033106211401966274,0.0021000960687911144,0.06848416922990846,0.06282000611276789,0.05235001063777568,-2.000278213287743e-10,1.5485653432900649e-09,0.4099692715305814,0.03966529985358645,0.44963457138416785,
1.1150000000000035,6,-0.05311165349175976,-0.997573142596401,28.512130823635015,46.152699999999996,1000,1000,1000,1000,-7.638232958628573e-05,0.0011017649517189453,-0.019518075263750996,0.00019902741051396663,-0.246224108281632,-3.060344950402266,0.0013261306819769357,0.0003553037845824876,-0.6090636797727733,0.07000265215696784,-0.0007674534175854621,-0.00011360497908355413,0.003317620625896892,0.0020595037482779065,0.08510559773390204,0.06282000611276789,0.05235001063777568,-2.000278213287743e-10,1.5485653432900649e-09,0.41172312174514586,0.0402437692490096,0.45196689099415543,
1.1175000000000033,7,-0.05311165349175976,-0.997573142596401,28.512130823635015,46.152699999999996,1000,1000,1000,1000,-0.00041364158618929856,0.001325525751373048,-0.021633475392213285,0.00022086723625265505,-0.2566647841368892,-2.8517603544079613,0.0013344334176189183,0.0003603244383702163,-0.6088296333640624,0.07000208807299743,-0.0007608193115952487,-0.0001647411087209864,0.0033245381367370233,0.0019477575484511086,0.10220870093649699,0.06282000611276789,0.05235001063777568,-2.000278213287743e-10,1.5485653432900649e-09,0.41019230069986806,0.04052600358377675,0.4507183042836448,
1.120000000000003,8,-0.05311165349175976,-0.997573142596401,28.512130823635015,46.152699999999996,1000,1000,1000,1000,-0.000791507043213976,0.001507135648529578,-0.02359816885976671,0.000127403155120406,-0.2620258020583669,-2.7039217427769406,0.001342753118283322,0.0003649973024276621,-0.6085522270789282,0.07000062991484582,-0.0007533226620286115,-0.00022091472446327182,0.003331168376283098,0.0017847318948265348,0.11977102410579062,0.06282000611276789,0.05235001063777568,-2.000278213287743e-10,1.5485653432900649e-09,0.40799694776116724,0.040668402221919635,0.4486653499830869,
1.1225000000000027,9,-0.05311165349175976,-0.997573142596401,28.512130823635015,46.152699999999996,1000,1000,1000,1000,-0.0011922432999787354,0.0016413485809028368,-0.025484238336147436,-8.053894277257074e-05,-0.26484778100462786,-2.679416149877385,0.0013510889114415046,0.0003692257861538196,-0.6082305814550288,0.0699981986774486,-0.0007450959000907359,-0.00028185011036115104,0.0033374056835619526,0.0015963994786705588,0.1375545002945953,0.06282000611276789,0.05235001063777568,-2.000278213287743e-10,1.5485653432900649e-09,0.40717406783249466,0.04074224893665875,0.4479163167691534,
1.1250000000000024,10,-0.05311165349175976,-0.997573142596401,28.512130823635015,46.152699999999996,1000,1000,1000,1000,-0.0016010455319976126,0.0017257963095381854,-0.02735245927497323,-0.0003577644005589749,-0.2664524003519901,-2.792404026979873,0.0013594398124396536,0.00037298171617071587,-0.6078645537492171,0.06999475584248264,-0.0007362688361191776,-0.00034743769848150655,0.0033432670470733986,0.0014107123285912037,0.15522578528002487,0.06282000611276789,0.05235001063777568,-2.000278213287743e-10,1.5485653432900649e-09,0.4086623797287955,0.04078189170250993,0.44944427143130544,
1.164999999999998,20,-0.05311165349175976,-0.997573142596401,28.512130823635015,46.152699999999996,1000,1000,1000,1000,-0.0058587657096496265,0.001289630569890601,-0.06071290641781892,-0.0022852600444728715,-0.2743553566164305,-4.65990798239674,0.0014953058851832127,0.00042752957401144824,-0.596862622243089,0.06985160626994269,-0.0005521732381692312,-0.002089330912834005,0.003451936947314415,0.0019757836133609055,0.38495667560847374,0.06282000611276789,0.05235001063777568,-2.000278213287743e-10,1.5485653432900649e-09,0.43388559678000777,0.040897855598291934,0.4747834523782997,
1.2124999999999928,40,-0.05311165349175976,-0.997573142596401,28.512130823635015,46.152699999999996,1000,1000,1000,1000,-0.007219970723001282,-0.0016057085748300958,-0.10364858899521183,-0.0038787235925688774,-0.281565789795517,-5.285386983933252,0.0016713713480905347,0.000613275996485864,-0.5715164354749782,0.06950815109728914,-0.0002779127576003988,-0.006191277145890181,0.0035879400794115598,0.005741430297981171,0.6239003017988907,0.06282000611276789,0.05235001063777568,-2.000278213287743e-10,1.5485653432900649e-09,0.4384809796402653,0.041008552769732504,0.4794895324099978,
1.264999999999987,60,-0.05311165349175976,-0.997573142596401,28.512130823635015,46.152699999999996,1000,1000,1000,1000,-0.008581941596545422,-0.0052004177916680034,-0.14571383056440027,-0.004241882571120551,-0.29098422174681854,-5.938623451904991,0.0018536284944120013,0.0010302164908540935,-0.5349830317457338,0.06909754451649039,-4.543884242011006e-06,-0.012426400706775352,0.003704551100684714,0.01124243198029918,0.8319399549092195,0.06282000611276789,0.05235001063777568,-2.000278213287743e-10,1.5485653432900649e-09,0.44072903106419714,0.0411271341936414,0.48185616525783853,
1.3149999999999815,80,-0.05311165349175976,-0.997573142596401,28.512130823635015,46.152699999999996,1000,1000,1000,1000,-0.0076544896328682105,-0.006599202439781857,-0.18623473846739952,-0.009068697694289312,-0.298778960436571,-6.343512962597213,0.00204188571934453,0.0017596173008830938,-0.4887439916441347,0.06870851704762644,0.0002666862373545042,-0.02073346054998829,0.003821487211492161,0.018088278265826676,1.0142666998211394,0.06282000611276789,0.05235001063777568,-2.000278213287743e-10,1.5485653432900649e-09,0.4412083413960944,0.041248054362413675,0.48245639575850807,
1.364999999999976,100,-0.05311165349175976,-0.997573142596401,28.512130823635015,46.152699999999996,1000,1000,1000,1000,-0.006854528261599837,-0.008421051573452272,-0.22490220308615133,-0.013047519544373783,-0.30422265742067267,-6.6620086855985114,0.0022361986920128294,0.002851127879044924,-0.4338462003396813,0.06833512534409295,0.0005826799103660879,-0.03102246958372983,0.003952355244619366,0.02568218677617086,1.1790204115253176,0.06282000611276789,0.05235001063777568,-2.000278213287743e-10,1.5485653432900649e-09,0.44122442425625985,0.041368966766109065,0.4825933910223689,
1.4124999999999708,120,-0.05311165349175976,-0.997573142596401,28.512130823635015,46.152699999999996,1000,1000,1000,1000,-0.08443860540659041,-0.02259027762246434,-0.2589902814397756,-0.6397668233811955,-5.291201221725828,-34.58349303298016,0.0024312428150563797,0.004321733048390193,-0.37139129911967117,0.06774172565835922,0.0009448358579381046,-0.043191948202746806,0.0014110827793656377,0.02550377762207925,1.1999329898706437,0.06282000611276789,0.05235001063777568,-2.000278213287743e-10,1.5485653432900649e-09,0.46149317809886736,0.0413997412050703,0.5028929193039376,
1.4624999999999653,140,-0.05311165349175976,-0.997573142596401,28.512130823635015,46.152699999999996,1000,1000,1000,1000,-0.03998254107593493,-0.019010286763321862,-0.2361263267165629,-0.3227666066987645,0.5350833982080634,-9.892976489685893,0.001982997907321969,0.002509144708449723,-0.3521522104118267,0.06896776847049639,0.00021661986106794623,-0.05535494488500777,-0.015476606844314244,-0.029535591667292804,-0.013174640901240207,0.06282000611276789,0.05235001063777568,-2.000278213287743e-10,1.5485653432900649e-09,0.43533446598617453,0.041012371087485004,0.47634683707365955,
1.5149999999999595,160,-0.05311165349175976,-0.997573142596401,28.512130823635015,46.152699999999996,1000,1000,1000,1000,-0.062481744534563455,-0.01938603767280802,-0.20400271322988853,-0.08455816877762098,-1.267014605440468,-9.671098679787919,0.0012643900677816124,0.001776480291629757,-0.35284314370956293,0.06566019635154446,-0.0001889112189306406,-0.06653107388479951,-0.013244195503767021,-0.005788369397272919,-0.013617439239033755,0.06282000611276789,0.05235001063777568,-2.000278213287743e-10,1.5485653432900649e-09,0.47841688543746147,0.040961926184701354,0.5193788116221628,
1.5624999999999543,180,-0.05311165349175976,-0.997573142596401,28.512130823635015,46.152699999999996,1000,1000,1000,1000,-0.06366760685076094,-0.02181602929279872,-0.17373880402930086,0.02566231359126282,-0.042391829801972314,-9.808488081546985,0.0006519165972308375,0.0016648111242860409,-0.35351296444847186,0.062436904752573345,-0.0005188488300129269,-0.07605223312456759,-0.010672152262544601,0.0030421460143292287,-0.013124138783845421,0.06282000611276789,0.05235001063777568,-2.000278213287743e-10,1.5485653432900649e-09,0.4745907395314671,0.04093792431834561,0.5155286638498127,
1.6149999999999485,200,-0.05311165349175976,-0.997573142596401,28.512130823635015,46.152699999999996,1000,1000,1000,1000,-0.05564757022769577,-0.012699861154767875,-0.14975286801818452,0.08269182412865832,-0.9559153794767541,-9.752847658375247,0.00013954012311301456,0.00196369508817825,-0.3541452558986976,0.05954187339765042,-0.0008317726085521932,-0.08409955244197621,-0.010364605239809598,0.004225539493644178,-0.012240582677825018,0.06282000611276789,0.05235001063777568,-2.000278213287743e-10,1.5485653432900649e-09,0.4685219353515491,0.04091004012157895,0.509431975473128,
1.6624999999999432,220,-0.05311165349175976,-0.997573142596401,28.512130823635015,46.152699999999996,1000,1000,1000,1000,-0.04741327389983779,-0.01000972146359516,-0.13149296148670986,-0.026246678748676387,-0.8658610439643594,-9.74987068827816,-0.00036052338943535486,0.0020860856063746507,-0.35473916054869054,0.056931327566509586,-0.0011199003660212054,-0.09118987425529411,-0.009015730558035848,0.001181497268853546,-0.011453165616719295,0.06282000611276789,0.05235001063777568,-2.000278213287743e-10,1.5485653432900649e-09,0.47263670481874925,0.04088899033586529,0.5135256951546145,
1.7124999999999377,240,-0.05311165349175976,-0.997573142596401,28.512130823635015,46.152699999999996,1000,1000,1000,1000,-0.04968208511722853,-0.01402564772442139,-0.11212746991517464,0.007355515425976783,-0.6346483877612308,-9.752936074116219,-0.0008100819233608259,0.002122768109738981,-0.3553014045857623,0.05432053140344081,-0.0013479944760893942,-0.09727953174461429,-0.008320806487438381,-0.0008649327874921566,-0.010908026833704213,0.06282000611276789,0.05235001063777568,-2.000278213287743e-10,1.5485653432900649e-09,0.4681890807690387,0.04086715149559991,0.5090562322646386,
1.764999999999932,260,-0.05311165349175976,-0.997573142596401,28.512130823635015,46.152699999999996,1000,1000,1000,1000,-0.05101970594496995,-0.0068822013424538605,-0.09412709205473216,0.07194124132620518,-1.1791962667349993,-9.726753731440313,-0.0012138931531154383,0.0020361405233483855,-0.35583018276868467,0.05188122743702246,-0.0015505401346836258,-0.10243830564643332,-0.007370426648485657,-0.0035665836169461794,-0.01030910041940892,0.06282000611276789,0.05235001063777568,-2.000278213287743e-10,1.5485653432900649e-09,0.4471360325219825,0.04084378288549956,0.48797981540748203,
1.8149999999999264,280,-0.05311165349175976,-0.997573142596401,28.512130823635015,46.152699999999996,1000,1000,1000,1000,-0.05099720417491735,-0.005281617191717064,-0.07472820731597521,0.022856540513481235,-0.23340410703598719,-9.801741448742755,-0.0015882564429967596,0.0015949371674070564,-0.356328433328543,0.049550970427496684,-0.0017546544614279976,-0.10686742181191752,-0.00562730087093732,-0.0037818065622285154,-0.009774168578481532,0.06282000611276789,0.05235001063777568,-2.000278213287743e-10,1.5485653432900649e-09,0.47094052898309635,0.04082220297374104,0.5117627319568374,
1.864999999999921,300,-0.05311165349175976,-0.997573142596401,28.512130823635015,46.152699999999996,1000,1000,1000,1000,-0.043862132583413725,-0.00869957279772331,-0.06125742601730651,0.02383582251732068,-0.5451520426229322,-9.766515979709725,-0.001786725838610957,0.0013749162410174166,-0.3568007723194576,0.04714879975590075,-0.001903612266427941,-0.11020051412005415,-0.0029805382305050036,-0.00695882643928517,-0.0091235112808606,0.06282000611276789,0.05235001063777568,-2.000278213287743e-10,1.5485653432900649e-09,0.4602816670901824,0.0408094880425347,0.5010911551327171,
1.9149999999999154,320,-0.05311165349175976,-0.997573142596401,28.512130823635015,46.152699999999996,1000,1000,1000,1000,-0.050722229694140815,-0.003627273901237636,-0.04433187534269197,0.08712809621238747,-0.5623586847535568,-9.782196248274273,-0.0019359002126793246,0.000958082868829892,-0.35724355841591027,0.04496644099838873,-0.0020482352051375313,-0.11284260143771789,-0.0023246282033653207,-0.007591608546997515,-0.008718149584632786,0.06282000611276789,0.05235001063777568,-2.000278213287743e-10,1.5485653432900649e-09,0.4654131214448539,0.04078887834445197,0.5062019997893059,
1.9624999999999102,340,-0.05311165349175976,-0.997573142596401,28.512130823635015,46.152699999999996,1000,1000,1000,1000,-0.03844424786444075,-0.0024838454666626614,-0.03060364910874543,-0.07276564091193083,-0.5974957454098474,-9.779109276525382,-0.002027615059592961,0.0004956758333044892,-0.3576620571397114,0.04280362032805739,-0.0022204387457049296,-0.11467683185970148,-0.0011480477026168205,-0.009640237947909552,-0.008053111886034296,0.06282000611276789,0.05235001063777568,-2.000278213287743e-10,1.5485653432900649e-09,0.4650633604150714,0.04076957940633288,0.5058329398214043,
2.012499999999908,360,-0.05311165349175976,-0.997573142596401,28.512130823635015,46.152699999999996,1000,1000,1000,1000,-0.03704846904475463,-0.006047904702147011,-0.020259221472758788,0.024121380366712596,-0.3767061710576274,-9.787751340410336,-0.0021025631792807517,-4.09270355743745e-05,-0.35805587344910617,0.040738015538620574,-0.0023631415773770464,-0.11591354511884625,-0.0014164084169109427,-0.012792436679788051,-0.0075996460189298115,0.06282000611276789,0.05235001063777568,-2.000278213287743e-10,1.5485653432900649e-09,0.46150706682329456,0.040753965428706254,0.5022610322520008,
2.064999999999916,380,-0.05311165349175976,-0.997573142596401,28.512130823635015,46.152699999999996,1000,1000,1000,1000,-0.03921443497013866,-0.0022804646264766287,-0.011356416427937653,-0.03332920650933364,-0.6068095449354265,-9.784131018749713,-0.00216299755644301,-0.0006269179289810827,-0.3584272142533487,0.03873903587108119,-0.002486169740794164,-0.11669538834885261,-0.001287714034762931,-0.013057922767562331,-0.007195958358430544,0.06282000611276789,0.05235001063777568,-2.000278213287743e-10,1.5485653432900649e-09,0.4623985798249451,0.0407409768140565,0.5031395566390016,
2.114999999999924,400,-0.05311165349175976,-0.997573142596401,28.512130823635015,46.152699999999996,1000,1000,1000,1000,-0.034030373588139394,-0.0016331589697129,-0.004018871163919935,-0.11058079765242652,-0.287509628884619,-9.80325754895414,-0.0021741996514517276,-0.0012679284898511197,-0.3587767632926877,0.03684309181038723,-0.002611760299995259,-0.11715622709754354,-0.0006010386718082011,-0.01413571958630986,-0.0067371685775369115,0.06282000611276789,0.05235001063777568,-2.000278213287743e-10,1.5485653432900649e-09,0.46564855951687956,0.04073427073318034,0.5063828302500599,
2.1624999999999313,420,-0.05311165349175976,-0.997573142596401,28.512130823635015,46.152699999999996,1000,1000,1000,1000,-0.035491171485355494,-0.004561460025392955,0.005329739526566771,0.010750878622362021,-0.37703029757090667,-9.782769636467895,-0.002195473635088533,-0.00193775343759701,-0.35910730960030407,0.03492385783661073,-0.0027219910428651593,-0.11706890201919605,-0.00028129950813625236,-0.013490983942984048,-0.0063968741714266085,0.06282000611276789,0.05235001063777568,-2.000278213287743e-10,1.5485653432900649e-09,0.45829650774955627,0.04072816047240873,0.499024668221965,
2.212499999999939,440,-0.05311165349175976,-0.997573142596401,28.512130823635015,46.152699999999996,1000,1000,1000,1000,-0.039528020279183035,-0.0012715762976739202,-0.0006059252581455289,-0.06050073768884406,-0.3479672137901932,-9.796405744870489,-0.0022272087124425243,-0.00258422722616746,-0.35941804776762354,0.03312690551801462,-0.0028241625314786157,-0.11691688247657635,-0.0008290272350380172,-0.012341790409767062,-0.006077707779610343,0.06282000611276789,0.05235001063777568,-2.000278213287743e-10,1.5485653432900649e-09,0.4539186449132415,0.0407410929918834,0.4946597379051249,
2.2649999999999473,460,-0.05311165349175976,-0.997573142596401,28.512130823635015,46.152699999999996,1000,1000,1000,1000,-0.031953288767265976,8.245839123836527e-05,-0.0038262323162281883,-0.026597244526001457,-0.2334662535526032,-9.80317030745576,-0.0022635305351776515,-0.003208023361357727,-0.3597109213628647,0.03138822716175788,-0.0029377758456361077,-0.11708385722078252,-0.0005350444497533892,-0.012227451008587208,-0.005656699441063044,0.06282000611276789,0.05235001063777568,-2.000278213287743e-10,1.5485653432900649e-09,0.4597824374827684,0.040741555996166016,0.5005239934789344,
2.3124999999999547,480,-0.05311165349175976,-0.997573142596401,28.512130823635015,46.152699999999996,1000,1000,1000,1000,-0.03164417163587444,-0.003892431053071234,0.002392250649964066,0.004545644446644136,-0.3134979525987102,-9.788499500072422,-0.002303683831498307,-0.0038031722428111133,-0.3599871515074476,0.029678198687287553,-0.00301326199049193,-0.11712927472922761,-0.0010049344991000608,-0.01195040021191938,-0.005346922687023931,0.06282000611276789,0.05235001063777568,-2.000278213287743e-10,1.5485653432900649e-09,0.46073686009354975,0.04073204234454322,0.501468902438093,
2.364999999999963,500,-0.05311165349175976,-0.997573142596401,28.512130823635015,46.152699999999996,1000,1000,1000,1000,-0.03510602189042144,-0.0006696103679436826,0.002294271188640818,-0.07029484894143179,-0.29542908333083057,-9.798269223092328,-0.002346000455247766,-0.0043782514829100545,-0.36024689830394724,0.028079878156102543,-0.003066048423484935,-0.11696792858774342,-0.000942562158701078,-0.011023502768635304,-0.005076525818661609,0.06282000611276789,0.05235001063777568,-2.000278213287743e-10,1.5485653432900649e-09,0.4556284553505252,0.040737748636361024,0.49636620398688625,
2.4149999999999707,520,-0.05311165349175976,-0.997573142596401,28.512130823635015,46.152699999999996,1000,1000,1000,1000,-0.02842307633916509,0.0006677165605926978,-0.00275761582931148,-0.028526135223512234,-0.19456759348282565,-9.803790685921294,-0.002390352559583785,-0.004933660355136311,-0.36049167703979634,0.026535431139042137,-0.0031427156233401108,-0.11699544270934166,-0.0006527416838603309,-0.01089097593507321,-0.004730607494703677,0.06282000611276789,0.05235001063777568,-2.000278213287743e-10,1.5485653432900649e-09,0.45699891070767523,0.040743776507943884,0.4977426872156191,
2.4649999999999785,540,-0.05311165349175976,-0.997573142596401,28.512130823635015,46.152699999999996,1000,1000,1000,1000,-0.028048618560456613,-0.003032786013815716,-0.00047497697674364625,2.1029846830250554e-05,-0.26448015346537196,-9.792745810480808,-0.0024342814381795815,-0.005463889618990604,-0.3607225011777538,0.02501701507682624,-0.003185679019585601,-0.11710842679418196,-0.0010342353172726854,-0.010641035001638034,-0.004468203677885055,0.06282000611276789,0.05235001063777568,-2.000278213287743e-10,1.5485653432900649e-09,0.4605420838624833,0.0407373653830142,0.5012794492454975,
2.5149999999999864,560,-0.05311165349175976,-0.997573142596401,28.512130823635015,46.152699999999996,1000,1000,1000,1000,-0.030881980282270512,-0.001342777597720405,0.002596151413408628,-0.05389836404032536,-0.2687407735753209,-9.79665633091844,-0.0024821000954980605,-0.006000014232483361,-0.36095018649963484,0.023521056752335692,-0.0032109194808700777,-0.11702397916319006,-0.0010951115122613815,-0.00986378019996153,-0.004227442766668756,0.06282000611276789,0.05235001063777568,-2.000278213287743e-10,1.5485653432900649e-09,0.4576941444446831,0.04073683756220891,0.498430982006892,
2.564999999999994,580,-0.05311165349175976,-0.997573142596401,28.512130823635015,46.152699999999996,1000,1000,1000,1000,-0.02655772575315792,0.001600713328853372,-0.0007884976897434273,-0.04904724776127814,-0.1655195339146111,-9.80520394159403,-0.002529924004190696,-0.006493014345693526,-0.36115408411417244,0.022164444871088564,-0.003250737110257375,-0.11696768167774661,-0.0007662670556358784,-0.009533088643370928,-0.0039545926856023195,0.06282000611276789,0.05235001063777568,-2.000278213287743e-10,1.5485653432900649e-09,0.4562278744282295,0.04074349606550199,0.49697137049373147,
2.6175000000000024,600,-0.05311165349175976,-0.997573142596401,28.512130823635015,46.152699999999996,1000,1000,1000,1000,-0.021284788009692225,-0.0012259391492599684,-0.009432842597934523,-0.012844735826545505,-0.03023057364907991,-9.807966140289896,-0.002585134837900187,-0.007024831900507463,-0.3613455711487997,0.02092338902993069,-0.003268938114364562,-0.11712851008100846,-0.001555219216848555,-0.013609264293645014,-0.0036934846184171386,0.06282000611276789,0.05235001063777568,-2.000278213287743e-10,1.5485653432900649e-09,0.4498751450260329,0.040752960380130494,0.49062810540616336,
2.66500000000001,620,-0.05311165349175976,-0.997573142596401,28.512130823635015,46.152699999999996,1000,1000,1000,1000,-0.02644620589727407,0.00043062788262173936,-0.008101413431768588,0.013623203798971618,-0.25202202502499294,-9.798524601810357,-0.002644012430810192,-0.007498512434323402,-0.36152729261355276,0.019561100994865483,-0.0032807324145692537,-0.11768462723756887,-0.0006100526103673326,-0.008912453021003514,-0.0035246359585514317,0.06282000611276789,0.05235001063777568,-2.000278213287743e-10,1.5485653432900649e-09,0.46325571962846634,0.04074569374803356,0.5040014133765,
2.717500000000018,640,-0.05311165349175976,-0.997573142596401,28.512130823635015,46.152699999999996,1000,1000,1000,1000,-0.02345051852384828,0.0019118299626052866,0.004936494958144364,-0.035106105558389965,-0.13689161333795077,-9.805292270982735,-0.0026842859752727556,-0.007938615102964624,-0.36169768070156727,0.0183678366226023,-0.0032922087459095768,-0.11777970851578215,-0.0010048413175666984,-0.008328281025018732,-0.0033074044187700086,0.06282000611276789,0.05235001063777568,-2.000278213287743e-10,1.5485653432900649e-09,0.46388575425862993,0.040731939605866734,0.5046176938644966,
2.767500000000026,660,-0.05311165349175976,-0.997573142596401,28.512130823635015,46.152699999999996,1000,1000,1000,1000,-0.020875401508652292,-0.0009924828896048954,0.004566484494755049,-0.0011364626840274332,-0.16032200950756537,-9.799983258961623,-0.002736415192389377,-0.008353803504261504,-0.3618584813065025,0.01718408436825588,-0.0032922636330560617,-0.11744554807136998,-0.0010807171198026183,-0.008372245290440231,-0.003107103169397491,0.06282000611276789,0.05235001063777568,-2.000278213287743e-10,1.5485653432900649e-09,0.4527882521250843,0.04073989306092009,0.49352814518600435,
2.8150000000000333,680,-0.05311165349175976,-0.997573142596401,28.512130823635015,46.152699999999996,1000,1000,1000,1000,-0.0241682522307838,-0.0005293630640395105,-0.005896897205664134,-0.048969619090904457,-0.1876793948400573,-9.800426373687365,-0.0027847316659168346,-0.008754171207600385,-0.3620097729059978,0.01606545046117292,-0.003269753028075631,-0.11750726356978088,-0.0010628396922129455,-0.0077642664478236095,-0.002948491467459753,0.06282000611276789,0.05235001063777568,-2.000278213287743e-10,1.5485653432900649e-09,0.4556575910422957,0.04075140160923185,0.49640899265152755,
2.8675000000000415,700,-0.05311165349175976,-0.997573142596401,28.512130823635015,46.152699999999996,1000,1000,1000,1000,-0.020829434901509545,0.0019408047049793364,-0.0010409349898464044,-0.048139598890283256,-0.10678596888868078,-9.805343910543549,-0.0028331798741205185,-0.009141083869432434,-0.3621522207482532,0.015004929139558077,-0.003265963815914749,-0.11774671593683486,-0.0008552407855194749,-0.007457537086134845,-0.002765215084227294,0.06282000611276789,0.05235001063777568,-2.000278213287743e-10,1.5485653432900649e-09,0.4634374985248399,0.04074065871786862,0.5041781572427085,
2.9175000000000493,720,-0.05311165349175976,-0.997573142596401,28.512130823635015,46.152699999999996,1000,1000,1000,1000,-0.018455056783231463,-0.00047777148122219235,0.005363505732889961,-0.004350900123067398,-0.12954445275472817,-9.801612257481661,-0.0028848995101400667,-0.009509475258490805,-0.36228663825412444,0.013955352141739208,-0.0032526941384594206,-0.1175861037758579,-0.001053117145574223,-0.007417914371241183,-0.0025991521269782287,0.06282000611276789,0.05235001063777568,-2.000278213287743e-10,1.5485653432900649e-09,0.45768787602041633,0.040736355724548305,0.49842423174496464,
2.967500000000057,740,-0.05311165349175976,-0.997573142596401,28.512130823635015,46.152699999999996,1000,1000,1000,1000,-0.021396271155356767,-0.00011920943775344573,-0.0013911613322810576,-0.04495697461202623,-0.15459206892107824,-9.80172253808023,-0.002934480736096174,-0.00986409673110378,-0.3624131731342896,0.012963966352193892,-0.0032170618601830244,-0.11745537108694365,-0.001088984709241152,-0.006879875374362594,-0.002464315931353311,0.06282000611276789,0.05235001063777568,-2.000278213287743e-10,1.5485653432900649e-09,0.4538720208909363,0.04074819930077094,0.49462022019170726,
3.017500000000065,760,-0.05311165349175976,-0.997573142596401,28.512130823635015,46.152699999999996,1000,1000,1000,1000,-0.018508171347588975,0.001985772199244783,-0.0036731252013786995,-0.045134304530760484,-0.08223320780373687,-9.805395819735002,-0.0029833503172019588,-0.010207364660121317,-0.36253229099172984,0.01202382666576824,-0.0031983776715656807,-0.11763791015503887,-0.0008537685068705186,-0.006619907387910553,-0.002312394619386379,0.06282000611276789,0.05235001063777568,-2.000278213287743e-10,1.5485653432900649e-09,0.4602135373846963,0.04074724673820394,0.5009607841229002,
3.0675000000000727,780,-0.05311165349175976,-0.997573142596401,28.512130823635015,46.152699999999996,1000,1000,1000,1000,-0.016336593276654834,-0.00016679919748678726,0.002821841564647965,-0.007236938926223888,-0.10153219920877016,-9.802857118985804,-0.003033445328292693,-0.010534315415369281,-0.36264465649319294,0.011093684464029717,-0.0031725580596075292,-0.11765957625545626,-0.0010190075421374466,-0.006575468863517986,-0.0021740803474852802,0.06282000611276789,0.05235001063777568,-2.000278213287743e-10,1.5485653432900649e-09,0.46054479626633515,0.04073837476496514,0.5012831710313003,
3.11500000000008,800,-0.05311165349175976,-0.997573142596401,28.512130823635015,46.152699999999996,1000,1000,1000,1000,-0.01892297978541827,0.00017540360693395934,0.0018447045345883065,-0.042400540009380566,-0.12486939836080416,-9.802774408065748,-0.003082492960819292,-0.010848246599455123,-0.36275048337224114,0.010215548511009769,-0.0031273531398794932,-0.11749639187776674,-0.0010802692307627483,-0.0060891767412586196,-0.002059923214069267,0.06282000611276789,0.05235001063777568,-2.000278213287743e-10,1.5485653432900649e-09,0.45524073598448345,0.04074409846016341,0.49598483444464686,
3.1675000000000884,820,-0.05311165349175976,-0.997573142596401,28.512130823635015,46.152699999999996,1000,1000,1000,1000,-0.01642812441400815,0.0020316424107482568,-0.0030276926296321704,-0.04228145567169352,-0.06079680585728039,-9.805441199765193,-0.0031312919122273605,-0.011152158950189686,-0.3628501162629686,0.009382934516083123,-0.0030974541971632488,-0.11754520364771415,-0.0008560492912258028,-0.005864241764777375,-0.001934203473263108,0.06282000611276789,0.05235001063777568,-2.000278213287743e-10,1.5485653432900649e-09,0.4572786728495568,0.04074946155399816,0.498028134403555,
3.217500000000096,840,-0.05311165349175976,-0.997573142596401,28.512130823635015,46.152699999999996,1000,1000,1000,1000,-0.014463553344211486,7.982860384423726e-05,-0.00011077114272870987,-0.008766140529469918,-0.07690767308198818,-9.803791592633903,-0.0031799710057005184,-0.011442048089206278,-0.3629440606918281,0.008558895301669188,-0.0030622199640742195,-0.11765233178848983,-0.000978532610140964,-0.005828974963358921,-0.001818510147970666,0.06282000611276789,0.05235001063777568,-2.000278213287743e-10,1.5485653432900649e-09,0.46070556339299146,0.040742780037318634,0.5014483434303101,
3.267500000000104,860,-0.05311165349175976,-0.997573142596401,28.512130823635015,46.152699999999996,1000,1000,1000,1000,-0.016734826154717674,0.00037476949563251577,0.0025836211953502676,-0.03994387381473319,-0.09827139345426082,-9.803618246055557,-0.003227456656367909,-0.011720010063138435,-0.3630325623520714,0.007781234868641778,-0.003010266810416466,-0.11756153653635056,-0.0010453454618967286,-0.005387609975674131,-0.0017218912236287177,0.06282000611276789,0.05235001063777568,-2.000278213287743e-10,1.5485653432900649e-09,0.4575522920414831,0.040742283387878005,0.4982945754293611,
3.317500000000112,880,-0.05311165349175976,-0.997573142596401,28.512130823635015,46.152699999999996,1000,1000,1000,1000,-0.014564293625809088,0.0020459827046871272,-0.00097223987967345,-0.039773585581101036,-0.04181674956852853,-9.805494070081165,-0.0032752330810227395,-0.011988763003863648,-0.36311590769705226,0.007044427179781705,-0.002972153696052354,-0.11750981016068617,-0.0008493368775988073,-0.005185293059341497,-0.0016182054895902264,0.06282000611276789,0.05235001063777568,-2.000278213287743e-10,1.5485653432900649e-09,0.4561314244753229,0.040748509883053556,0.49687993435837646,
3.3650000000001192,900,-0.05311165349175976,-0.997573142596401,28.512130823635015,46.152699999999996,1000,1000,1000,1000,-0.01279778849840465,0.0002881188501304798,-0.0016209154745578135,-0.009588246885198284,-0.05530193960120483,-9.804487158454382,-0.003322493619481664,-0.012245398160316265,-0.36319446774072767,0.0063148806928762236,-0.002930085649091675,-0.11760249106853927,-0.0009397095850334566,-0.005162964500886486,-0.0015212744033622346,0.06282000611276789,0.05235001063777568,-2.000278213287743e-10,1.5485653432900649e-09,0.45931872826459746,0.04074647965192744,0.5000652079165249,
3.415000000000127,920,-0.05311165349175976,-0.997573142596401,28.512130823635015,46.152699999999996,1000,1000,1000,1000,-0.014802856950387293,0.0005118477249870666,0.0015559202648980101,-0.03730022753882063,-0.07465036811657637,-9.80428200090712,-0.0033680984667193103,-0.012491473385700924,-0.3632684793924438,0.0056263039720526745,-0.002873631632539324,-0.11760059313153282,-0.0009974636123242816,-0.004767480535213465,-0.001439244075162502,0.06282000611276789,0.05235001063777568,-2.000278213287743e-10,1.5485653432900649e-09,0.45908414472015785,0.04074314700864623,0.4998272917288041,
3.4675000000001353,940,-0.05311165349175976,-0.997573142596401,28.512130823635015,46.152699999999996,1000,1000,1000,1000,-0.012901609259015819,0.002019693053632905,0.0006966510911946607,-0.0374259821084293,-0.024885465050979348,-9.805556030391614,-0.003414091682621899,-0.012729049030909875,-0.36333819995551964,0.004974563529205921,-0.0028297637790597515,-0.11752251515606373,-0.0008286697970994571,-0.004580201327314014,-0.0013539585774077145,0.06282000611276789,0.05235001063777568,-2.000278213287743e-10,1.5485653432900649e-09,0.45658674866529797,0.04074675904858778,0.49733350771388574,
3.5150000000001427,960,-0.05311165349175976,-0.997573142596401,28.512130823635015,46.152699999999996,1000,1000,1000,1000,-0.011312680573290912,0.00045803718242482623,-0.0015207732660212953,-0.010111378789358728,-0.03629951143163744,-9.805004296248534,-0.0034596399627905947,-0.012955927097697923,-0.36340390783317483,0.004329169208327009,-0.002782997570766715,-0.11755490192629933,-0.0009005309579195668,-0.004566941099606496,-0.0012728806654101967,0.06282000611276789,0.05235001063777568,-2.000278213287743e-10,1.5485653432900649e-09,0.4578685777235185,0.040748146649363166,0.4986167243728817,
3.567500000000151,980,-0.05311165349175976,-0.997573142596401,28.512130823635015,46.152699999999996,1000,1000,1000,1000,-0.013093169171849876,0.0006112864176448155,0.0001431021186650213,-0.034528108096497194,-0.05379700753166955,-9.804794964640653,-0.003503285870749812,-0.013173613823001005,-0.36346580666115424,0.003719689455979889,-0.0027238402196050893,-0.117601397810761,-0.000946054876079401,-0.00421820978917563,-0.0012029670243633578,0.06282000611276789,0.05235001063777568,-2.000278213287743e-10,1.5485653432900649e-09,0.45933935513696866,0.04074535877959378,0.5000847139165624,
3.6175000000001587,1000,-0.05311165349175976,-0.997573142596401,28.512130823635015,46.152699999999996,1000,1000,1000,1000,-0.011425354321088429,0.0019614700825931583,0.0012230758297816886,-0.03506438930876107,-0.009789313223651949,-9.805620852367749,-0.0035471014874468216,-0.013383615459386471,-0.36352412660990785,0.003143328094046212,-0.002676183406454514,-0.11755194090089767,-0.0007969273046069213,-0.004044392392281982,-0.0011328278004975733,0.06282000611276789,0.05235001063777568,-2.000278213287743e-10,1.5485653432900649e-09,0.45765163678931803,0.04074589322544539,0.4983975300147634,
3.6675000000001665,1020,-0.05311165349175976,-0.997573142596401,28.512130823635015,46.152699999999996,1000,1000,1000,1000,-0.009990819614807401,0.000585772452286791,-0.0006068400663754532,-0.01045983088423436,-0.0195239714102465,-9.805389390748486,-0.0035905740878387424,-0.01358400966782447,-0.36357909072705413,0.0025727248443381807,-0.0026264717303006277,-0.11753300259056432,-0.00085782830067198,-0.004034652272157695,-0.0010652517892252773,0.06282000611276789,0.05235001063777568,-2.000278213287743e-10,1.5485653432900649e-09,0.4571931059517427,0.040748150725792916,0.4979412566775356,
3.715000000000174,1040,-0.05311165349175976,-0.997573142596401,28.512130823635015,46.152699999999996,1000,1000,1000,1000,-0.011575285133217485,0.0006840829987984549,-0.0006919443122352424,-0.03179006558104101,-0.03541305969632814,-9.805187622496328,-0.0036321662435201156,-0.01377637914832129,-0.3636308664466418,0.0020335619067134345,-0.002566057411352876,-0.1175791236307891,-0.0008943661014414971,-0.003729916783364589,-0.0010055469887549076,0.06282000611276789,0.05235001063777568,-2.000278213287743e-10,1.5485653432900649e-09,0.4587613005310364,0.04074740479431023,0.49950870532534664,
3.7650000000001818,1060,-0.05311165349175976,-0.997573142596401,28.512130823635015,46.152699999999996,1000,1000,1000,1000,-0.010117343514959383,0.0018845779763833192,0.0008358096920000898,-0.032653548448166744,0.0035986369886496557,-9.805681749350054,-0.0036736658923225557,-0.013961963039902858,-0.36367964848022394,0.0015239872658747626,-0.0025161605548769,-0.11757218567275682,-0.0007592320899467474,-0.00357101098310365,-0.000947723665327413,0.06282000611276789,0.05235001063777568,-2.000278213287743e-10,1.5485653432900649e-09,0.45844966951356486,0.04074629188674789,0.49919596140031275,
3.81750000000019,1080,-0.05311165349175976,-0.997573142596401,28.512130823635015,46.152699999999996,1000,1000,1000,1000,-0.008818509273447434,0.0006737630479621743,0.00023615399754066757,-0.010618121885879515,-0.004685055197360895,-9.805676061152626,-0.003714810744557328,-0.014138893212904126,-0.3637256257059634,0.0010197007171456585,-0.0024649154353400047,-0.11753553154584963,-0.0008111306608649692,-0.0035614803637340495,-0.0008915851140732016,0.06282000611276789,0.05235001063777568,-2.000278213287743e-10,1.5485653432900649e-09,0.45731325528640276,0.04074757774798632,0.4980608330343891,
3.8650000000001974,1100,-0.05311165349175976,-0.997573142596401,28.512130823635015,46.152699999999996,1000,1000,1000,1000,-0.0102257948916672,0.0007333677491978018,-0.0007501347696393796,-0.029192487574598004,-0.019172978803693175,-9.805487564443089,-0.0037542107381180047,-0.01430872034789516,-0.36376893973003405,0.0005430366788420729,-0.0024044040276239237,-0.1175552266478025,-0.0008423059762537303,-0.0032950787805089837,-0.0008406399083370957,0.06282000611276789,0.05235001063777568,-2.000278213287743e-10,1.5485653432900649e-09,0.45805473453790385,0.04074852132942119,0.49880325586732505,
3.915000000000205,1120,-0.05311165349175976,-0.997573142596401,28.512130823635015,46.152699999999996,1000,1000,1000,1000,-0.00895756483123773,0.0017982321705915707,0.00016869438016064807,-0.03025063187937619,0.015410197899697367,-9.805734954766304,-0.003793353519420402,-0.014472632443446605,-0.3638097450868532,9.268494012045467e-05,-0.002353484480809315,-0.11757471510440708,-0.0007191583575883476,-0.0031523376675215635,-0.0007928046694995272,0.06282000611276789,0.05235001063777568,-2.000278213287743e-10,1.5485653432900649e-09,0.45865625390713505,0.040747420409710966,0.499403674316846,
3.9675000000002134,1140,-0.05311165349175976,-0.997573142596401,28.512130823635015,46.152699999999996,1000,1000,1000,1000,-0.007781916889814136,0.000729664891269503,0.000569280628235843,-0.010568577512662998,0.00843023734406552,-9.805886780223089,-0.0038320670076441264,-0.01462881290187182,-0.36384820269232887,-0.00035287560403103325,-0.0023018172898150967,-0.11754852095240878,-0.0007621350894928365,-0.0031425500222382477,-0.0007462312960876763,0.06282000611276789,0.05235001063777568,-2.000278213287743e-10,1.5485653432900649e-09,0.45779631711491425,0.040747300670420074,0.49854361778533435,
4.017500000000221,1160,-0.05311165349175976,-0.997573142596401,28.512130823635015,46.152699999999996,1000,1000,1000,1000,-0.009027234515258649,0.0007610231718420268,-0.00035681380414959255,-0.026758767859020934,-0.004788940477163285,-9.805716927170453,-0.0038691595325756447,-0.01477863363082157,-0.3638844403884582,-0.0007740670117412843,-0.002242123771728994,-0.11754254646667547,-0.0007895189445228771,-0.0029082751469990823,-0.0007028731578231236,0.06282000611276789,0.05235001063777568,-2.000278213287743e-10,1.5485653432900649e-09,0.45767265634513793,0.04074877975330376,0.4984214360984417,
4.067500000000229,1180,-0.05311165349175976,-0.997573142596401,28.512130823635015,46.152699999999996,1000,1000,1000,1000,-0.007927404506616536,0.001706449083345995,-0.0002789274261469169,-0.02792170695080755,0.025810099950332094,-9.805780710232387,-0.003905920642937782,-0.014923292638518503,-0.3639185762548658,-0.0011718754257931756,-0.0021911406826925594,-0.11756510566719763,-0.0006781350423979605,-0.0027813177625102513,-0.0006631996430211331,0.06282000611276789,0.05235001063777568,-2.000278213287743e-10,1.5485653432900649e-09,0.45842628518089773,0.040748551900470324,0.49917483708136806,
4.117500000000237,1200,-0.05311165349175976,-0.997573142596401,28.512130823635015,46.152699999999996,1000,1000,1000,1000,-0.0068662775264609005,0.00076175992958749,0.00043966037028673614,-0.010338830760214574,0.019993040013158114,-9.806038240693058,-0.003942195430946054,-0.015061116535663019,-0.3639507423973542,-0.0015654359468647966,-0.0021399073018912324,-0.11755887323213125,-0.0007128427874244958,-0.002772295751523585,-0.0006245331747422087,0.06282000611276789,0.05235001063777568,-2.000278213287743e-10,1.5485653432900649e-09,0.4582055978086495,0.040747594314560515,0.49895319212321,
4.165000000000244,1220,-0.05311165349175976,-0.997573142596401,28.512130823635015,46.152699999999996,1000,1000,1000,1000,-0.00796514164352622,0.0007704356821791311,6.035024672925509e-05,-0.02447241567738069,0.007964365492500824,-9.805891662160949,-0.003976935208022169,-0.015193232198598009,-0.3639810593523566,-0.0019374695620704094,-0.0020817333670149654,-0.11754205164603833,-0.0007365484065997355,-0.00256513936097163,-0.0005877263750607149,0.06282000611276789,0.05235001063777568,-2.000278213287743e-10,1.5485653432900649e-09,0.45767912302805175,0.04074866692083254,0.49842778994888426,
4.2175000000002525,1240,-0.05311165349175976,-0.997573142596401,28.512130823635015,46.152699999999996,1000,1000,1000,1000,-0.007011500260845245,0.001610704053742603,-0.00035911137381572475,-0.025699987906661993,0.034977325792577924,-9.805820806175213,-0.004011301541895006,-0.015320802752914602,-0.36400961822138383,-0.0022886785247884897,-0.0020314404200164646,-0.11755341209100205,-0.0006365337427396837,-0.0024522360933208697,-0.0005548042784642819,0.06282000611276789,0.05235001063777568,-2.000278213287743e-10,1.5485653432900649e-09,0.4580875578390749,0.04074926443786248,0.4988368222769374,
4.26750000000026,1260,-0.05311165349175976,-0.997573142596401,28.512130823635015,46.152699999999996,1000,1000,1000,1000,-0.006057007522044633,0.0007760975298897267,0.0001310910805984973,-0.0099825846694822,0.030162521221216997,-9.806143208019714,-0.004045168318849761,-0.015442369232251122,-0.36403652185035146,-0.002636172712180997,-0.001981288973393856,-0.1175612235388714,-0.0006644582686696032,-0.002444979075411716,-0.0005226469607190444,0.06282000611276789,0.05235001063777568,-2.000278213287743e-10,1.5485653432900649e-09,0.45834593042028743,0.0407482599179514,0.4990941903382388,
4.317500000000268,1280,-0.05311165349175976,-0.997573142596401,28.512130823635015,46.152699999999996,1000,1000,1000,1000,-0.0070258517619304385,0.0007659509341567308,0.0002568569104702952,-0.022318825088945365,0.01926134708768128,-9.806023146426378,-0.004077577084894324,-0.01555883795262661,-0.3640618836119877,-0.0029646869131958803,-0.001925153163947868,-0.11754770362752086,-0.0006844742256910439,-0.002261525893258182,-0.0004914362264077585,0.06282000611276789,0.05235001063777568,-2.000278213287743e-10,1.5485653432900649e-09,0.45789201439230603,0.040748626456250894,0.4986406408485569,
4.367500000000276,1300,-0.05311165349175976,-0.997573142596401,28.512130823635015,46.152699999999996,1000,1000,1000,1000,-0.0061976206142075815,0.0015123789007554706,-0.00019662468234595614,-0.02359007951189655,0.04307600551930742,-9.805857216421993,-0.0041095682991917435,-0.015671271512339432,-0.3640857774416935,-0.0032746119416522707,-0.0018761334334823348,-0.11754646020843677,-0.0005947134820227635,-0.00216056909576152,-0.00046414623968001707,0.06282000611276789,0.05235001063777568,-2.000278213287743e-10,1.5485653432900649e-09,0.4578784316446571,0.0407495392995156,0.49862797094417266,
4.417500000000284,1320,-0.05311165349175976,-0.997573142596401,28.512130823635015,46.152699999999996,1000,1000,1000,1000,-0.005341022407108245,0.000776386602046729,-0.0001029171315813706,-0.009547699368017986,0.03909643534803339,-9.806213236332734,-0.004141070785619586,-0.015778432870290564,-0.3641082801201358,-0.003581287002016656,-0.001827547975751871,-0.11755734268137005,-0.0006173991058507183,-0.002155343779126055,-0.0004373698256252829,0.06282000611276789,0.05235001063777568,-2.000278213287743e-10,1.5485653432900649e-09,0.45826175138013825,0.04074895656403511,0.49901070794417335,
4.465000000000291,1340,-0.05311165349175976,-0.997573142596401,28.512130823635015,46.152699999999996,1000,1000,1000,1000,-0.0061958889946391255,0.0007514488483094172,0.00022367542706878908,-0.020297990067668005,0.029249485361763507,-9.806119741799675,-0.0041712085630608775,-0.01588107402173394,-0.36412949487779644,-0.0038712810036412287,-0.0017738167397092406,-0.11755300143376124,-0.0006342044684635492,-0.0019932486056204674,-0.0004108902152823623,0.06282000611276789,0.05235001063777568,-2.000278213287743e-10,1.5485653432900649e-09,0.45809760959318535,0.04074883416355165,0.498846443756737,
4.517500000000299,1360,-0.05311165349175976,-0.997573142596401,28.512130823635015,46.152699999999996,1000,1000,1000,1000,-0.005475500410123641,0.0014134551296020093,5.7791943741111195e-06,-0.02158848519937593,0.05024017305222473,-9.805890580642075,-0.004200885444265657,-0.015980124385733943,-0.36414948500475364,-0.0041446729386299,-0.0017265075380422127,-0.1175454821146397,-0.0005533236554840426,-0.001902503973054705,-0.00038830265711869625,0.06282000611276789,0.05235001063777568,-2.000278213287743e-10,1.5485653432900649e-09,0.4578558192748272,0.04074958899032748,0.4986054082651547,
4.567500000000307,1380,-0.011521794995267684,0.019964560436866584,-1.7429109908921918,124.05269999999999,1550,1704,1610,0,-0.004707297206204682,0.0007651922400649567,-0.00016669249395128308,-0.009062264992340148,0.04694653398697975,-9.806257482374352,-0.004230082558881375,-0.016074529462434525,-0.3641683071735005,-0.004415192386359797,-0.0016798428656379315,-0.11755183753699454,-0.0005717944905305683,-0.0018989366314356353,-0.00036601114018963764,0.06282000611276789,0.05235001063777568,-2.000278213287743e-10,1.5485653432900649e-09,0.458102381700594,0.0407494594856016,0.4988518411861956,
4.617500000000315,1400,0.01152898536279674,0.019963529647439426,-1.762668602789618,6.19,1550,1704,1611,1513,-0.00546242761222421,0.0007296395032956859,8.41890530689983e-05,-0.018416188912041966,0.03806625765981172,-9.80618846404014,-0.004258023604875375,-0.016164945276867505,-0.3641860520230835,-0.004671084776849898,-0.0016287608092666616,-0.11755478537210821,-0.0005861643692899768,-0.001756232257512563,-0.00034351430455685294,0.06282000611276789,0.05235001063777568,-2.000278213287743e-10,1.5485653432900649e-09,0.45818433155178023,0.04074922547902258,0.49893355703080283,
4.667500000000323,1420,0.01152898536279674,0.019963529647439426,-1.762668602789618,6.19,1550,1704,1611,1513,-0.004835771886949359,0.0013159903795944522,0.00011623937295680266,-0.019696518533088823,0.05657556163635025,-9.805920959903757,-0.004285477586040964,-0.016252175674306004,-0.36420277479600593,-0.004912171440353288,-0.001583475237404056,-0.1175479617635759,-0.0005130822010327532,-0.0016745502579746715,-0.0003248304191615662,0.06282000611276789,0.05235001063777568,-2.000278213287743e-10,1.5485653432900649e-09,0.4579466310946476,0.04074963503574656,0.4986962661303942,
4.71500000000033,1440,0.01152898536279674,0.019963529647439426,-1.762668602789618,6.19,1550,1704,1611,1513,-0.004146638813265907,0.0007449063316352509,-0.00010335906684514799,-0.008539765248062704,0.05384976082432785,-9.806283727714522,-0.004312450969749069,-0.01633529895273175,-0.36421851829277946,-0.005150693089666994,-0.0015389821984643302,-0.1175482469085208,-0.000527852662335428,-0.0016720560788403183,-0.0003062997445569506,0.06282000611276789,0.05235001063777568,-2.000278213287743e-10,1.5485653432900649e-09,0.4579906005213284,0.04074973466251133,0.49874033518383976,
4.7675000000003385,1460,0.01152898536279674,0.019963529647439426,-1.762668602789618,6.19,1550,1704,1611,1513,-0.004813943727415411,0.0007022710435907444,-3.5433994057488265e-05,-0.016675243332992484,0.04584361487076779,-9.806235321042566,-0.004338275908043588,-0.016414904324716643,-0.3642333603191508,-0.0053763940124037755,-0.0014906987667304323,-0.11755343568554742,-0.0005404248408056216,-0.0015467582859458877,-0.00028716592760573753,0.06282000611276789,0.05235001063777568,-2.000278213287743e-10,1.5485653432900649e-09,0.4581581210063634,0.040749644162740954,0.49890776516910434,
4.815000000000346,1480,0.023055856328743345,-2.6983068309411353e-07,-1.7429105830661817,6.19,1550,1703,1611,1513,-0.004269521845223245,0.0012214765399882117,0.00011479909206746214,-0.017920297505480118,0.062169953128721554,-9.80594784196542,-0.004363612169320882,-0.01649169813751227,-0.3642473483638991,-0.005588921014008672,-0.0014476469141940147,-0.11755072924008221,-0.0004744938347143322,-0.0014733965959134391,-0.0002717012098374422,0.06282000611276789,0.05235001063777568,-2.000278213287743e-10,1.5485653432900649e-09,0.45804816970851064,0.04074978243402186,0.49879795214253253,
4.865000000000354,1500,0.011529451844981206,-0.01996326470730443,-1.7626686028573924,6.19,1551,1703,1611,1513,-0.003651122946999955,0.0007179527923693022,-7.094876085995546e-06,-0.007989815291990946,0.059923375866846366,-9.806297050973983,-0.004388465551282403,-0.016564856511233222,-0.3642605159062322,-0.005799149912086047,-0.001405490743949743,-0.11754752935426191,-0.00048590299229311684,-0.0014715269357985447,-0.00025632583449715124,0.06282000611276789,0.05235001063777568,-2.000278213287743e-10,1.5485653432900649e-09,0.45796633871984743,0.04074987252544711,0.4987162112452945,
4.917500000000362,1520,0.011529451844981206,-0.01996326470730443,-1.7626686028573924,6.19,1551,1703,1611,1513,-0.004240499284034775,0.0006706737186112781,-7.792994727027274e-05,-0.015069184738692688,0.0527045805254839,-9.806265644023865,-0.004412263994502096,-0.01663490686605611,-0.36427292962421415,-0.0059981304487615825,-0.0013600816346185922,-0.11755100950321358,-0.0004969724325525164,-0.00136159657714995,-0.00024004987882714898,0.06282000611276789,0.05235001063777568,-2.000278213287743e-10,1.5485653432900649e-09,0.45808520066800257,0.04074997364279256,0.4988351743107951,
4.965000000000369,1540,0.011529451844981206,-0.01996326470730443,-1.7626686028573924,6.19,1551,1703,1611,1513,-0.0037683829703138772,0.0011306732382236752,5.316917980567308e-05,-0.016264818573866812,0.06710242059807482,-9.805971240788462,-0.004435590181812226,-0.01670248476086168,-0.3642846291077212,-0.006185409337428621,-0.0013193910808668792,-0.11755200421762751,-0.0004377726378989032,-0.0012959472374091722,-0.0002272300792361137,0.06282000611276789,0.05235001063777568,-2.000278213287743e-10,1.5485653432900649e-09,0.4580989677350804,0.04075001646112125,0.49884898419620166,
5.0175000000003775,1560,0.011529451844981206,-0.01996326470730443,-1.7626686028573924,6.19,1551,1703,1611,1513,-0.0032136219911703,0.0006865180529988422,5.2829533378121006e-05,-0.00742432237699551,0.06526590966415471,-9.806301490797638,-0.004458440659664279,-0.01676684894444434,-0.3642956409670039,-0.006370637169130007,-0.0012796660421523231,-0.11754868871621137,-0.0004462526528888604,-0.001294496710055918,-0.00021449026107934186,0.06282000611276789,0.05235001063777568,-2.000278213287743e-10,1.5485653432900649e-09,0.45800242226683174,0.040749982447395514,0.49875240471422727,
5.067500000000385,1580,0.011529451844981206,-0.01996326470730443,-1.7626686028573924,6.19,1551,1703,1611,1513,-0.0037336038957337596,0.0006361176370213134,-5.528335305748814e-05,-0.013587795565940067,0.05875886259409238,-9.806283664065894,-0.004480314225301391,-0.016828461290463375,-0.36430602308315635,-0.00654598525679706,-0.001237149414950253,-0.11754930126367101,-0.00045586549521993696,-0.0011979853357938204,-0.0002006557111419987,0.06282000611276789,0.05235001063777568,-2.000278213287743e-10,1.5485653432900649e-09,0.4580274636767872,0.04075018571034019,0.4987776493871274,
5.117500000000393,1600,0.011529451844981206,-0.01996326470730443,-1.7626686028573924,6.19,1551,1703,1611,1513,-0.003324790947170296,0.001043864583884069,-7.02515117775745e-06,-0.014729761678334756,0.07144737040345692,-9.805991234753197,-0.0045017377923733245,-0.016887901476422124,-0.3643158077118729,-0.006710945622029049,-0.0011988834833287663,-0.1175517303806315,-0.0004029470789624682,-0.001139406206835809,-0.0001900135602413517,0.06282000611276789,0.05235001063777568,-2.000278213287743e-10,1.5485653432900649e-09,0.45809413907370056,0.040750267531091865,0.4988444066047924,
5.167500000000401,1620,0.011529451844981206,-0.01996326470730443,-1.7626686028573924,6.19,1551,1703,1611,1513,-0.002827593805752485,0.0006522822106834164,5.925983812978917e-05,-0.006856911527150687,0.06996152579159712,-9.806299293559196,-0.004522705808000005,-0.016944507561718572,-0.3643250155964316,-0.006874087697906834,-0.0011616259897014513,-0.11755020700038683,-0.000409060779083608,-0.001138339243748351,-0.00017946256602299459,0.06282000611276789,0.05235001063777568,-2.000278213287743e-10,1.5485653432900649e-09,0.458050533241537,0.040750124862501964,0.49880065810403895,
5.217500000000409,1640,0.011529451844981206,-0.01996326470730443,-1.7626686028573924,6.19,1551,1703,1611,1513,-0.0032858705100964974,0.000599844112838468,-1.0274288956908858e-05,-0.012221390141655988,0.06410135079828647,-9.806292743176892,-0.004542766321668783,-0.01699867522503604,-0.3643336977319365,-0.007028549864748082,-0.0011219746974997886,-0.11754894345651273,-0.00041722583840894634,-0.0010535292179265094,-0.00016771498696635637,0.06282000611276789,0.05235001063777568,-2.000278213287743e-10,1.5485653432900649e-09,0.4580099366286393,0.04075031737037404,0.49876025399901336,
5.267500000000417,1660,0.011529451844981206,-0.01996326470730443,-1.7626686028573924,6.19,1551,1703,1611,1513,-0.0029321255946400133,0.0009612001263790005,-3.318715123064855e-05,-0.013309784224477133,0.07527413236070245,-9.806008440896818,-0.004562396483652106,-0.01705093250699532,-0.3643418803122725,-0.0071737881333672985,-0.001086147314265585,-0.11755079808969474,-0.000370005252127239,-0.001001318787302774,-0.00015887437874199,0.06282000611276789,0.05235001063777568,-2.000278213287743e-10,1.5485653432900649e-09,0.4580621094593717,0.04075047670998063,0.4988125861693523,
5.317500000000424,1680,0.011529451844981206,-0.01996326470730443,-1.7626686028573924,6.19,1551,1703,1611,1513,-0.0024870714492314073,0.0006163928160863817,3.280410587817286e-05,-0.006299523728024976,0.07408450316508643,-9.806292691297847,-0.004581599848633417,-0.017100695403446303,-0.36434957876394725,-0.0073174224052967715,-0.0010513481584220814,-0.11755111426921737,-0.00037432434719472576,-0.0010006471876773551,-0.00015013446596552082,0.06282000611276789,0.05235001063777568,-2.000278213287743e-10,1.5485653432900649e-09,0.4580778666082368,0.0407503016318308,0.4988281682400676,
5.367500000000432,1700,0.011529451844981206,-0.01996326470730443,-1.7626686028573924,6.19,1551,1703,1611,1513,-0.0028907065184658833,0.0005629267917825074,2.1512214605777353e-05,-0.010963097139605782,0.06881374031028566,-9.806295217800006,-0.004599963748687855,-0.017148299373750564,-0.3643568382531519,-0.0074534366668872485,-0.0010144994902395366,-0.11754957156659115,-0.00038115107660608653,-0.0009260966690973957,-0.00014016593349728236,0.06282000611276789,0.05235001063777568,-2.000278213287743e-10,1.5485653432900649e-09,0.45802373308633976,0.04075042176290735,0.4987741548492471,
5.41750000000044,1720,0.011529451844981206,-0.01996326470730443,-1.7626686028573924,6.19,1551,1703,1611,1513,-0.0025846570805567117,0.0008828742659567174,-2.6622533756080042e-05,-0.011997447806375735,0.07864514175338161,-9.80602320167885,-0.004617912994695605,-0.017194220673354937,-0.3643636804408953,-0.007581256913756099,-0.000981086600555576,-0.11755009871204436,-0.0003389700416804782,-0.000879552071296902,-0.00013282388149017668,0.06282000611276789,0.05235001063777568,-2.000278213287743e-10,1.5485653432900649e-09,0.4580334607547262,0.04075062505329462,0.4987840858080208,
5.4650000000004475,1740,0.011529451844981206,-0.01996326470730443,-1.7626686028573924,6.19,1551,1703,1611,1513,-0.0021867157658896396,0.0005796316184688658,2.9995397684546175e-06,-0.005759968670468175,0.07770191709725133,-9.806282877063278,-0.004635465713176957,-0.017237948394499027,-0.364370116118997,-0.007707663540734984,-0.0009487019077905869,-0.117551264753873,-0.0003419473701458585,-0.0008792561519845711,-0.00012558261085489534,0.06282000611276789,0.05235001063777568,-2.000278213287743e-10,1.5485653432900649e-09,0.4580783149716333,0.0407504833298015,0.49882879830143484,
5.517500000000456,1760,0.011529451844981206,-0.01996326470730443,-1.7626686028573924,6.19,1551,1703,1611,1513,-0.002542143257791463,0.0005261587335773404,2.8230525645206614e-05,-0.009808102337611107,0.07296744585409383,-9.80629291329984,-0.004652248298745756,-0.01727976781908221,-0.36437618509439423,-0.007827389142332216,-0.0009145658838777845,-0.11755047241324068,-0.0003476497647526543,-0.0008137594877322713,-0.00011712394557470149,0.06282000611276789,0.05235001063777568,-2.000278213287743e-10,1.5485653432900649e-09,0.45804658111665914,0.04075053244139922,0.49879711355805834,
5.565000000000463,1780,0.011529451844981206,-0.01996326470730443,-1.7626686028573924,6.19,1551,1703,1611,1513,-0.002277377942641213,0.0008091119758506302,-6.2594900307912495e-06,-0.01078592030607795,0.08161490732096525,-9.806036054647457,-0.004668631208157204,-0.017320104199581417,-0.3643819057136767,-0.00793983567042361,-0.0008835141412544877,-0.1175500150752328,-0.00030989159962322224,-0.0007722405677304808,-0.00011103019009581466,0.06282000611276789,0.05235001063777568,-2.000278213287743e-10,1.5485653432900649e-09,0.45802285932304154,0.04075072701638461,0.49877358633942614,
5.617500000000471,1800,0.011529451844981206,-0.01996326470730443,-1.7626686028573924,6.19,1551,1703,1611,1513,-0.0019218276974486144,0.0005426108073064503,-1.22705509391221e-05,-0.005242061223385474,0.08087448981910682,-9.806271401537686,-0.004684644669276134,-0.01735851124384182,-0.364387285093998,-0.00805103358817438,-0.0008534745121261539,-0.11755102898984301,-0.00031181977226771746,-0.0007722552245677198,-0.00010503227684903567,0.06282000611276789,0.05235001063777568,-2.000278213287743e-10,1.5485653432900649e-09,0.4580636173055861,0.040750641306120404,0.4988142586117065,
5.665000000000479,1820,0.011529451844981206,-0.01996326470730443,-1.7626686028573924,6.19,1551,1703,1611,1513,-0.0022347889833252204,0.0004900555217632846,1.7482643631559412e-05,-0.008751797626140551,0.07662612864942056,-9.80628709196232,-0.0046999567776758715,-0.0173952340677622,-0.36439235793863756,-0.008156380304968387,-0.0008219411673794169,-0.11755113190700535,-0.0003166386002235874,-0.0007147726873460628,-9.785196078698455e-05,0.06282000611276789,0.05235001063777568,-2.000278213287743e-10,1.5485653432900649e-09,0.4580613890518421,0.04075065482424617,0.4988120438760883,
5.717500000000487,1840,0.011529451844981206,-0.01996326470730443,-1.7626686028573924,6.19,1551,1703,1611,1513,-0.002005830781208038,0.0007400705676784292,9.993442219302371e-06,-0.00966987726321546,0.08423046568751431,-9.806047104475327,-0.0047148869285395965,-0.01743065051721208,-0.364397140045849,-0.008255264545738553,-0.0007931748387712096,-0.11755043178746105,-0.0002828019117596025,-0.0006777310007782659,-9.27973243219654e-05,0.06282000611276789,0.05235001063777568,-2.000278213287743e-10,1.5485653432900649e-09,0.4580281761620055,0.040750808125876094,0.4987789842878816,
5.765000000000494,1860,0.011529451844981206,-0.01996326470730443,-1.7626686028573924,6.19,1551,1703,1611,1513,-0.00168829692738105,0.0005058803109500631,-1.14099046663135e-05,-0.004747280009882947,0.08365648636181897,-9.806258881569374,-0.0047294708072446795,-0.01746436927600324,-0.36440163586338353,-0.00835304274303834,-0.0007653925067425207,-0.1175508413420812,-0.00028385604464222685,-0.000677970865599492,-8.783410635994231e-05,0.06282000611276789,0.05235001063777568,-2.000278213287743e-10,1.5485653432900649e-09,0.4580486188356372,0.040750764457950575,0.49879938329358775,
5.815000000000502,1880,0.011529451844981206,-0.01996326470730443,-1.7626686028573924,6.19,1551,1703,1611,1513,-0.00196382704693667,0.0004549422823396498,3.1470084924378944e-06,-0.007788492745338199,0.07984707322717043,-9.806278888294809,-0.004743418136375034,-0.017496602766485465,-0.36440587537927166,-0.008445699474973667,-0.0007363381645481122,-0.11755142240021167,-0.0002879835135175369,-0.0006275732699804014,-8.173567885376495e-05,0.06282000611276789,0.05235001063777568,-2.000278213287743e-10,1.5485653432900649e-09,0.45806340932306655,0.040750777133614,0.4988141864566805,
5.86750000000051,1900,0.011529451844981206,-0.01996326470730443,-1.7626686028573924,6.19,1551,1703,1611,1513,-0.0017659989542461916,0.0006757695510481022,1.4766637301883872e-05,-0.008644906463108658,0.08653270938694488,-9.806056677187447,-0.004757005035137593,-0.017527686962639392,-0.36440987219353443,-0.008532623990308564,-0.0007097649192199816,-0.11755102074781043,-0.00025768242026323027,-0.0005945443321161253,-7.754274377871074e-05,0.06282000611276789,0.05235001063777568,-2.000278213287743e-10,1.5485653432900649e-09,0.4580393690972861,0.040750886599148405,0.4987902556964345,
5.915000000000518,1920,0.011529451844981206,-0.01996326470730443,-1.7626686028573924,6.19,1551,1703,1611,1513,-0.0014825126133668192,0.0004699354483807826,-2.529203685844392e-06,-0.004276510383962413,0.08609567025910937,-9.80624630905179,-0.004770266768585624,-0.01755727709464163,-0.3644136289331548,-0.00861856741238574,-0.0006841391856976095,-0.11755092139979857,-0.00025799062950273725,-0.0005949335450223956,-7.344140341278965e-05,0.06282000611276789,0.05235001063777568,-2.000278213287743e-10,1.5485653432900649e-09,0.4580415554970187,0.04075085838798394,0.4987924138850026,
5.965000000000526,1940,0.011529451844981206,-0.01996326470730443,-1.7626686028573924,6.19,1551,1703,1611,1513,-0.001725002896377213,0.0004210510243043677,-5.249228909320502e-06,-0.006911411970718487,0.08268169947581634,-9.80626909738303,-0.00478295052660838,-0.0175855575745483,-0.36441717140646884,-0.008700028540329854,-0.0006574316195108665,-0.11755149015347333,-0.00026154403938414607,-0.0005507771048705159,-6.826071445818783e-05,0.06282000611276789,0.05235001063777568,-2.000278213287743e-10,1.5485653432900649e-09,0.45805721793950105,0.04075088579284665,0.4988081037323477,
6.017500000000534,1960,0.011529451844981206,-0.01996326470730443,-1.7626686028573924,6.19,1551,1703,1611,1513,-0.001554260571378397,0.0006160936123063693,1.0500424287378529e-05,-0.007706482613859011,0.08855778200688047,-9.806064774613926,-0.004795297876843764,-0.017612828219212073,-0.36442051122431546,-0.008776409613531667,-0.0006329475160704917,-0.11755151592007258,-0.00023446287287918555,-0.0005213561862911391,-6.478141813489585e-05,0.06282000611276789,0.05235001063777568,-2.000278213287743e-10,1.5485653432900649e-09,0.4580477208739292,0.04075096737300726,0.49879868824693646,
6.067500000000542,1980,0.011529451844981206,-0.01996326470730443,-1.7626686028573924,6.19,1551,1703,1611,1513,-0.0013012763855889857,0.0004351777579951505,5.531661866824667e-06,-0.0038308054215093587,0.08823368000171052,-9.806233790733263,-0.004807341139715722,-0.017638784520733725,-0.3644236497463901,-0.008851921080545996,-0.0006093689340891312,-0.11755124458225642,-0.00023415440280839187,-0.0005218429003199679,-6.139714757441532e-05,0.06282000611276789,0.05235001063777568,-2.000278213287743e-10,1.5485653432900649e-09,0.45804249160231714,0.04075093551461176,0.49879342711692887,
6.1175000000005495,2000,0.011529451844981206,-0.01996326470730443,-1.7626686028573924,6.19,1551,1703,1611,1513,-0.0015145762572797733,0.00038857560562742386,-5.851635071428673e-06,-0.006113423507167354,0.08517572451954632,-9.806258475549422,-0.004818858616105981,-0.01766358585923653,-0.36442660923629244,-0.008923509455959475,-0.0005848714035244288,-0.11755154304425308,-0.0002371960453897308,-0.00048316626215982503,-5.699627557316795e-05,0.06282000611276789,0.05235001063777568,-2.000278213287743e-10,1.5485653432900649e-09,0.458049886821517,0.040750974655922194,0.4988008614774392,
6.165000000000557,2020,0.011529451844981206,-0.01996326470730443,-1.7626686028573924,6.19,1551,1703,1611,1513,-0.001367375275959663,0.0005608448886018381,3.5781477976050443e-06,-0.006849413673469439,0.09033801186073614,-9.806071711423108,-0.004830064019447321,-0.0176875005830548,-0.3644293994948213,-0.008990598364753404,-0.0005623651113425742,-0.11755182872008171,-0.00021304296266983963,-0.0004569866374263835,-5.410714896251671e-05,0.06282000611276789,0.05235001063777568,-2.000278213287743e-10,1.5485653432900649e-09,0.45805008465058444,0.04075104618476268,0.4988011308353471,
6.215000000000565,2040,0.011529451844981206,-0.01996326470730443,-1.7626686028573924,6.19,1551,1703,1611,1513,-0.0011417379037847223,0.00040188742759453993,8.467496092832558e-06,-0.0034113008657356185,0.09010683988767482,-9.806221914284299,-0.004840987198531067,-0.01771025994805591,-0.36443202094542615,-0.009056918036323311,-0.0005407188477186375,-0.11755166372817684,-0.00021225756447784295,-0.0004575411411462012,-5.1317752655146056e-05,0.06282000611276789,0.05235001063777568,-2.000278213287743e-10,1.5485653432900649e-09,0.4580470272732205,0.04075100581710183,0.49879803309032233,
6.2650000000005726,2060,0.011529451844981206,-0.01996326470730443,-1.7626686028573924,6.19,1551,1703,1611,1513,-0.001329253952662149,0.00035768024322999835,-1.9942163680329436e-06,-0.005387840110624245,0.08736946958620563,-9.80624746719013,-0.0048514316398247034,-0.017732000776167663,-0.3644344928646724,-0.009119804505235729,-0.0005182931519311793,-0.11755170248768225,-0.0002148304358758946,-0.00042366872348372614,-4.758056947619987e-05,0.06282000611276789,0.05235001063777568,-2.000278213287743e-10,1.5485653432900649e-09,0.4580458877711567,0.04075104576370093,0.4987969335348576,
6.317500000000581,2080,0.011529451844981206,-0.01996326470730443,-1.7626686028573924,6.19,1551,1703,1611,1513,-0.0012024697350680974,0.0005098004912086819,-1.0479478726272713e-06,-0.006067935628775384,0.09190236145083312,-9.806077509611486,-0.004861587051145483,-0.01775296337143441,-0.36443682350938,-0.009178706926463933,-0.0004976493875282462,-0.11755201252440603,-0.00019331604533289495,-0.0004003913259257161,-4.5181027248910146e-05,0.06282000611276789,0.05235001063777568,-2.000278213287743e-10,1.5485653432900649e-09,0.4580480892483729,0.04075111683171999,0.4987992060800929,
6.365000000000588,2100,0.011529451844981206,-0.01996326470730443,-1.7626686028573924,6.19,1551,1703,1611,1513,-0.0010013558431905634,0.00037022977132322385,6.827001284440489e-06,-0.0030187286843771535,0.09174701907970574,-9.806210510990404,-0.00487148241445994,-0.017772911184768227,-0.3644390125492506,-0.009236930217199929,-0.00047781801675770473,-0.11755204429870483,-0.00019218847707561852,-0.00040099613702339386,-4.288399009605062e-05,0.06282000611276789,0.05235001063777568,-2.000278213287743e-10,1.5485653432900649e-09,0.45805080221130484,0.04075107309787954,0.4988018753091844,
6.417500000000596,2120,0.011529451844981206,-0.01996326470730443,-1.7626686028573924,6.19,1551,1703,1611,1513,-0.0011661211681948894,0.00032848458389325296,2.0404312373404447e-06,-0.00472874961464747,0.0892983653048877,-9.806236505866337,-0.004880942380159091,-0.017791961080523715,-0.3644410767341013,-0.009292150357811854,-0.0004573267849147271,-0.11755197251486157,-0.00019434133805851703,-0.00037133710458433984,-3.9711011123008296e-05,0.06282000611276789,0.05235001063777568,-2.000278213287743e-10,1.5485653432900649e-09,0.4580457948077131,0.040751105101796505,0.49879689990950965,
6.465000000000604,2140,0.011529451844981206,-0.01996326470730443,-1.7626686028573924,6.19,1551,1703,1611,1513,-0.0010570089940537361,0.000462744367539693,-1.9652081709192747e-06,-0.005356176875692214,0.09327661480754176,-9.806082486717383,-0.004890134576971709,-0.017810327881405717,-0.36444302304140674,-0.009343843457707685,-0.00043842898100540233,-0.1175521651553666,-0.00017518258896162466,-0.0003506494718731856,-3.77178157133894e-05,0.06282000611276789,0.05235001063777568,-2.000278213287743e-10,1.5485653432900649e-09,0.45804503017363696,0.04075117610385219,0.49879620627748916,
6.517500000000612,2160,0.011529451844981206,-0.01996326470730443,-1.7626686028573924,6.19,1551,1703,1611,1513,-0.0008778717981883295,0.00034028724263828744,3.4765489684746093e-06,-0.0026531261751466537,0.09318239150976762,-9.80620000150582,-0.004899088209498639,-0.01782780392378549,-0.3644448505482162,-0.009394937570382981,-0.00042029480249024275,-0.11755233132064227,-0.00017382415071822435,-0.0003512905034063646,-3.582769934673808e-05,0.06282000611276789,0.05235001063777568,-2.000278213287743e-10,1.5485653432900649e-09,0.4580519038817026,0.04075113632630141,0.498803040208004,
6.5650000000006195,2180,0.011529451844981206,-0.01996326470730443,-1.7626686028573924,6.19,1551,1703,1611,1513,-0.001022588274768789,0.00030105224354820835,3.844489268707426e-06,-0.004130942608671617,0.09099361581428711,-9.80622576549101,-0.004907646905000605,-0.017844488863799753,-0.3644465737948125,-0.009443406477083485,-0.00040160323844654826,-0.1175522893035453,-0.00017561656747319622,-0.00032533079038247917,-3.3134078957005097e-05,0.06282000611276789,0.05235001063777568,-2.000278213287743e-10,1.5485653432900649e-09,0.4580477477625519,0.040751158031719054,0.498798905794271,
6.617500000000628,2200,0.011529451844981206,-0.01996326470730443,-1.7626686028573924,6.19,1551,1703,1611,1513,-0.0009287555058927908,0.000419471526366774,-4.663029419586096e-07,-0.004708579688561422,0.094483538737241,-9.80608663524258,-0.004915957627585392,-0.017860574266871956,-0.36444819874657924,-0.009488753690129338,-0.00038433555671614776,-0.11755235202864994,-0.0001585510925495148,-0.0003069497688711989,-3.147933152812209e-05,0.06282000611276789,0.05235001063777568,-2.000278213287743e-10,1.5485653432900649e-09,0.45804327326283634,0.04075122471895954,0.49879449798179587,
6.665000000000635,2220,0.011529451844981206,-0.01996326470730443,-1.7626686028573924,6.19,1551,1703,1611,1513,-0.0007692879863395317,0.00031209421156992235,9.359318184578337e-07,-0.0023138411498477398,0.09443791135634667,-9.80619011697607,-0.004924049799364918,-0.01787587807061082,-0.36444972403552084,-0.009533572585849972,-0.0003677824479030689,-0.1175525418729868,-0.00015704232842391443,-0.0003076122922302762,-2.9925676353296238e-05,0.06282000611276789,0.05235001063777568,-2.000278213287743e-10,1.5485653432900649e-09,0.45805081175729684,0.04075119299022333,0.4988020047475202,
6.715000000000643,2240,0.011529451844981206,-0.01996326470730443,-1.7626686028573924,6.19,1551,1703,1611,1513,-0.0008963521301934999,0.00027539361661629104,3.3670097843922644e-06,-0.003589620576053242,0.09248279573795855,-9.806215477287402,-0.004931784747794163,-0.017890485348480426,-0.36445116225993696,-0.009576098269724017,-0.00035075967650315777,-0.11755258645622743,-0.0001585364658554329,-0.00028490298798247054,-2.763844894831873e-05,0.06282000611276789,0.05235001063777568,-2.000278213287743e-10,1.5485653432900649e-09,0.4580496112737457,0.04075120710053927,0.49880081837428497,
6.765000000000651,2260,0.011529451844981206,-0.01996326470730443,-1.7626686028573924,6.19,1551,1703,1611,1513,-0.000815727421278241,0.00037977769463561973,1.4122114697291315e-06,-0.004120081418156487,0.09554314202593674,-9.806090222520119,-0.004939290567046415,-0.017904566601690618,-0.36445251855001215,-0.009615862119114934,-0.0003350085041445125,-0.1175525832390924,-0.00014333316061273925,-0.00026857594671489046,-2.6264869219923067e-05,0.06282000611276789,0.05235001063777568,-2.000278213287743e-10,1.5485653432900649e-09,0.45804335391844614,0.04075126557534956,0.4987946194937957,
6.817500000000659,2280,0.011529451844981206,-0.01996326470730443,-1.7626686028573924,6.19,1551,1703,1611,1513,-0.0006738415577122193,0.0002856598122426731,1.295180572329449e-07,-0.001999796230184348,0.09553567002437106,-9.806181208115383,-0.0049465961467826,-0.017917962201312348,-0.3644537912563455,-0.009655159753918625,-0.0003199233249398241,-0.11755272135840052,-0.0001417286120409557,-0.0002692450656558058,-2.4989520328462792e-05,0.06282000611276789,0.05235001063777568,-2.000278213287743e-10,1.5485653432900649e-09,0.45804902597443337,0.040751241672645634,0.498800267647079,
6.867500000000667,2300,0.011529451844981206,-0.01996326470730443,-1.7626686028573924,6.19,1551,1703,1611,1513,-0.0007853692536308298,0.0002514804809496035,1.8596239033030645e-06,-0.003100192352054421,0.09379035657969002,-9.806205676943064,-0.0049535792593294065,-0.017930744891380246,-0.3644549912476498,-0.009692455357286082,-0.00030444342234643154,-0.11755283224645983,-0.00014297879237825205,-0.000249391197178002,-2.304706206137712e-05,0.06282000611276789,0.05235001063777568,-2.000278213287743e-10,1.5485653432900649e-09,0.4580502874240233,0.04075125236862877,0.49880153979265207,
6.9175000000006746,2320,0.011529451844981206,-0.01996326470730443,-1.7626686028573924,6.19,1551,1703,1611,1513,-0.0007161632013587513,0.00034345054422967844,2.366175886983702e-06,-0.0035860638945274773,0.09647300206220444,-9.806093189828594,-0.004960351413171206,-0.017943066311513718,-0.36445612296440405,-0.009727308770230378,-0.0002900984929978118,-0.11755283244628309,-0.0001294388260942588,-0.00023489448412677066,-2.1907507618293847e-05,0.06282000611276789,0.05235001063777568,-2.000278213287743e-10,1.5485653432900649e-09,0.4580445265103533,0.040751301539815724,0.49879582805016903,
6.965000000000682,2340,0.011529451844981206,-0.01996326470730443,-1.7626686028573924,6.19,1551,1703,1611,1513,-0.0005899778480023075,0.0002609756612910373,6.018684680476444e-07,-0.00170974755592953,0.0964951195965883,-9.806172947135643,-0.004966940130116902,-0.01795478639804921,-0.3644571846006336,-0.009761750651747605,-0.0002763720928259558,-0.11755290442505541,-0.00012777732170842586,-0.000235557092663692,-2.0862519639469906e-05,0.06282000611276789,0.05235001063777568,-2.000278213287743e-10,1.5485653432900649e-09,0.4580477629243562,0.04075128277765558,0.49879904570201183,
7.01750000000069,2360,0.011529451844981206,-0.01996326470730443,-1.7626686028573924,6.19,1551,1703,1611,1513,-0.000687831388039526,0.00022926243866851787,5.797625348027766e-07,-0.0026582045264975985,0.09493796805452182,-9.80619650362365,-0.004973238017542775,-0.017965967371917954,-0.36445818552364107,-0.009794445466274511,-0.000262314837589454,-0.11755303078437662,-0.0001288250686628356,-0.00021820932621527088,-1.9212304958082138e-05,0.06282000611276789,0.05235001063777568,-2.000278213287743e-10,1.5485653432900649e-09,0.4580498560437311,0.04075129292169495,0.49880114896542604,
7.065000000000698,2380,0.011529451844981206,-0.01996326470730443,-1.7626686028573924,6.19,1551,1703,1611,1513,-0.0006284957464310204,0.00031026885440061844,2.2143780075635758e-06,-0.0031022173728417705,0.09728861229339243,-9.806095765227777,-0.004979342401016554,-0.01797674411518427,-0.3644591295603198,-0.009824981918344628,-0.0002492700678364445,-0.11755306782616329,-0.00011677582753159677,-0.00020534450566234307,-1.8266574348094076e-05,0.06282000611276789,0.05235001063777568,-2.000278213287743e-10,1.5485653432900649e-09,0.4580457614550964,0.040751334219236005,0.4987970956743324,
7.115000000000705,2400,0.011529451844981206,-0.01996326470730443,-1.7626686028573924,6.19,1551,1703,1611,1513,-0.0005163235852047466,0.000238015406460289,1.4035063176720822e-06,-0.0014424593540775183,0.09733335461111338,-9.806165633611425,-0.004985278962435253,-0.017986993666469563,-0.36446001485282625,-0.009855155200471121,-0.00023679797522891243,-0.1175531001959013,-0.0001150890862182864,-0.00020599087302374013,-1.741201577833326e-05,0.06282000611276789,0.05235001063777568,-2.000278213287743e-10,1.5485653432900649e-09,0.45804740129666,0.040751317857109046,0.49879871915376905,
7.165000000000713,2420,0.011529451844981206,-0.01996326470730443,-1.7626686028573924,6.19,1551,1703,1611,1513,-0.0006021424280428098,0.00020867857344068397,8.564916902654009e-08,-0.002259415138701996,0.09594481384136855,-9.806187927403018,-0.004990953291887346,-0.01799676915852792,-0.36446084946130025,-0.009883804446900638,-0.00022404934965566926,-0.11755320298763586,-0.00011596440008354799,-0.00019084003380924523,-1.601010841085054e-05,0.06282000611276789,0.05235001063777568,-2.000278213287743e-10,1.5485653432900649e-09,0.45804898447672077,0.040751328187388795,0.49880031266410957,
7.2175000000007214,2440,0.011529451844981206,-0.01996326470730443,-1.7626686028573924,6.19,1551,1703,1611,1513,-0.0005513327420621812,0.0002800089506091943,1.48317772655289e-06,-0.0026644363459912244,0.09800366417473193,-9.806097864782165,-0.004996450644225167,-0.018006190607899136,-0.3644616366878473,-0.009910547106509612,-0.00021220345090359663,-0.11755327210241678,-0.00010525180991931389,-0.00017942997079079077,-1.5225510072403845e-05,0.06282000611276789,0.05235001063777568,-2.000278213287743e-10,1.5485653432900649e-09,0.4580464583819859,0.04075136396002951,0.4987978223420154,
7.265000000000729,2460,0.011529451844981206,-0.01996326470730443,-1.7626686028573924,6.19,1551,1703,1611,1513,-0.0004516644905717188,0.00021673321307403705,1.846874980817994e-06,-0.0011967281333293614,0.09806534773515599,-9.806158900154847,-0.005001794820800764,-0.01801515008525418,-0.3644623746741319,-0.009936969505248937,-0.00020088632777263716,-0.11755329872567692,-0.00010356828034295602,-0.0001800537519034945,-1.4528202009783572e-05,0.06282000611276789,0.05235001063777568,-2.000278213287743e-10,1.5485653432900649e-09,0.4580476568102379,0.040751348560760854,0.49879900537099875,
7.315000000000737,2480,0.011529451844981206,-0.01996326470730443,-1.7626686028573924,6.19,1551,1703,1611,1513,-0.0005268937626540402,0.0001896621942038621,2.4538038642175837e-07,-0.0018998728767201777,0.09682781860202692,-9.806180035178496,-0.005006902605013364,-0.018023692828769113,-0.3644630703727537,-0.009962062926405363,-0.00018933880332429814,-0.11755336709928292,-0.00010429421313554326,-0.00016682710969157972,-1.3337031012657092e-05,0.06282000611276789,0.05235001063777568,-2.000278213287743e-10,1.5485653432900649e-09,0.45804828941523296,0.04075135841503124,0.4987996478302642,
7.3650000000007445,2500,0.011529451844981206,-0.01996326470730443,-1.7626686028573924,6.19,1551,1703,1611,1513,-0.0004834404282302425,0.0002524525089737015,7.873651496588743e-07,-0.0022687976589379055,0.09863027875411826,-9.806099700317032,-0.005011848821175874,-0.018031925625888016,-0.36446372661646603,-0.00998547285028423,-0.00017859569716178897,-0.11755344549784008,-9.477757130214547e-05,-0.000156712745880521,-1.2685707362142862e-05,0.06282000611276789,0.05235001063777568,-2.000278213287743e-10,1.5485653432900649e-09,0.4580465774123166,0.04075139051201093,0.4987979679243275,
7.417500000000753,2520,0.011529451844981206,-0.01996326470730443,-1.7626686028573924,6.19,1551,1703,1611,1513,-0.00039492598696752693,0.00019706576366797395,1.7683740243904103e-06,-0.0009713588469123395,0.09870425011033479,-9.806153021246496,-0.0050166555951450765,-0.018039753815925562,-0.3644643415888676,-0.01000860059471267,-0.00016833962179437932,-0.11755348534275391,-9.312225062750002e-05,-0.00015731022093778187,-1.211789204555801e-05,0.06282000611276789,0.05235001063777568,-2.000278213287743e-10,1.5485653432900649e-09,0.4580480400994426,0.040751375974281266,0.49879941607372386,
7.4675000000007605,2540,0.011529451844981206,-0.01996326470730443,-1.7626686028573924,6.19,1551,1703,1611,1513,-0.000460842044893207,0.00017214151348271525,6.267088433370175e-07,-0.0015759731251678581,0.0976019063517452,-9.806172753249339,-0.005021249405532001,-0.01804721579530997,-0.3644649212828154,-0.010030569993809472,-0.00015789227287800445,-0.1175535298224665,-9.371895679553687e-05,-0.00014576814495866164,-1.1105976590594713e-05,0.06282000611276789,0.05235001063777568,-2.000278213287743e-10,1.5485653432900649e-09,0.45804801092340774,0.040751384441063535,0.49879939536447127,
7.522500000000769,2560,0.011529451844981206,-0.01996326470730443,-1.7626686028573924,6.19,1551,1703,1611,1513,-0.00045457165094994707,0.0002012756693484018,3.1767276909248954e-07,-0.00197897548179684,0.0983392725045127,-9.806129397619113,-0.005026128435101456,-0.018055085658124873,-0.3644655204344885,-0.01005326458376377,-0.00014707839657696422,-0.11755360677154013,-8.790209152639923e-05,-0.00013554214806992253,-1.0366492374305238e-05,0.06282000611276789,0.05235001063777568,-2.000278213287743e-10,1.5485653432900649e-09,0.4580472746497056,0.04075140691672927,0.4987986815664349,
7.5700000000007766,2580,0.011529451844981206,-0.01996326470730443,-1.7626686028573924,6.19,1551,1703,1611,1513,-0.0003590149893182896,0.00021037957437284376,1.339883954813075e-06,-0.0012389598107907106,0.09972038221257895,-9.806111178225464,-0.005030427193115046,-0.0180619218994998,-0.3644660307950608,-0.010073030869812517,-0.00013790031801929348,-0.11755365412605813,-8.129560641138241e-05,-0.0001337439845038866,-1.0022477628613646e-05,0.06282000611276789,0.05235001063777568,-2.000278213287743e-10,1.5485653432900649e-09,0.4580469413574434,0.040751414334287896,0.4987983556917313,
7.622500000000785,2600,0.011529451844981206,-0.01996326470730443,-1.7626686028573924,6.19,1551,1703,1611,1513,-0.00035637083603711357,0.0001483666064585104,1.049702545459448e-06,-0.000746320346427404,0.09866886089900667,-9.806174509788736,-0.0050345631706558034,-0.01806840233194532,-0.36446650967876476,-0.010092415217887122,-0.00012868995486447623,-0.11755369082135426,-8.31165569871537e-05,-0.000130189791686051,-9.332116600316936e-06,0.06282000611276789,0.05235001063777568,-2.000278213287743e-10,1.5485653432900649e-09,0.4580484585613352,0.04075140238444995,0.49879986094578516,
7.672500000000793,2620,0.011529451844981206,-0.01996326470730443,-1.7626686028573924,6.19,1551,1703,1611,1513,-0.00039796747231668413,0.00018133991804106155,2.75100558328263e-07,-0.0016413071170048397,0.09891986167544087,-9.80612785156533,-0.005038526475141335,-0.018074628197801083,-0.3644669623217907,-0.010110365699361383,-0.00011965789624366383,-0.11755374654057266,-7.896745285498332e-05,-0.00011830636020042637,-8.624415318327497e-06,0.06282000611276789,0.05235001063777568,-2.000278213287743e-10,1.5485653432900649e-09,0.4580470461217062,0.04075142763270267,0.4987984737544089,
7.7225000000008,2640,0.011529451844981206,-0.01996326470730443,-1.7626686028573924,6.19,1551,1703,1611,1513,-0.00031420522093114585,0.00018980012774766673,9.48642725175345e-07,-0.0009974742582757096,0.10014347316528631,-9.806110809551633,-0.005042386331444554,-0.018080595604751677,-0.36446738734899664,-0.010127648612566344,-0.00011135507381267382,-0.11755379978282643,-7.303696645760822e-05,-0.00011668953556009654,-8.35076975305376e-06,0.06282000611276789,0.05235001063777568,-2.000278213287743e-10,1.5485653432900649e-09,0.45804706427519387,0.04075143442715639,0.49879849870235027,
7.772500000000808,2660,0.011529451844981206,-0.01996326470730443,-1.7626686028573924,6.19,1551,1703,1611,1513,-0.00031105238985787035,0.00013487383026635633,1.0693486151428472e-06,-0.0005513990089018126,0.09922413582939799,-9.806166962575409,-0.005046099680479557,-0.018086251025638753,-0.3644677860191587,-0.010144602566286506,-0.00010303810755639292,-0.1175538375556771,-7.455207094997578e-05,-0.00011365500241648991,-7.773073992504032e-06,0.06282000611276789,0.05235001063777568,-2.000278213287743e-10,1.5485653432900649e-09,0.4580485171819031,0.040751423241023765,0.49879994042292686,
7.820000000000816,2680,0.011529451844981206,-0.01996326470730443,-1.7626686028573924,6.19,1551,1703,1611,1513,-0.00034825755426521005,0.0001632288208832308,4.038804977250768e-07,-0.0013381728479782576,0.0994288590661396,-9.806126281287671,-0.005049657184307318,-0.01809168317808561,-0.36446816289831474,-0.010160299174338997,-9.488288937129753e-05,-0.11755387865029514,-7.088413065528797e-05,-0.00010321200265928481,-7.171822390954385e-06,0.06282000611276789,0.05235001063777568,-2.000278213287743e-10,1.5485653432900649e-09,0.458046964243401,0.040751445526789706,0.49879840977019074,
7.872500000000824,2700,0.011529451844981206,-0.01996326470730443,-1.7626686028573924,6.19,1551,1703,1611,1513,-0.0002748657902330856,0.00017106717159900997,6.830399210345337e-07,-0.0007783718788579796,0.10051243081427218,-9.806110465322007,-0.005053120245506681,-0.018096889643357855,-0.3644685167156257,-0.010175403778210884,-8.738013307964265e-05,-0.11755392813759884,-6.556507056294394e-05,-0.0001017595755971919,-6.955498172436746e-06,0.06282000611276789,0.05235001063777568,-2.000278213287743e-10,1.5485653432900649e-09,0.45804701469206877,0.04075145206094181,0.4987984667530106,
7.920000000000831,2720,0.011529451844981206,-0.01996326470730443,-1.7626686028573924,6.19,1551,1703,1611,1513,-0.0002713655316178723,0.00012244085988451643,9.120518755511204e-07,-0.0003748966214783701,0.09970904929791286,-9.80616028555756,-0.005056451610172387,-0.018101822678186684,-0.3644688484650451,-0.010190225353873237,-7.987751540014554e-05,-0.11755397016583302,-6.68217561190248e-05,-9.917256862908761e-05,-6.471563572070778e-06,0.06282000611276789,0.05235001063777568,-2.000278213287743e-10,1.5485653432900649e-09,0.4580485396984021,0.04075144177750194,0.49879998147590404,
7.970000000000839,2740,0.011529451844981206,-0.01996326470730443,-1.7626686028573924,6.19,1551,1703,1611,1513,-0.0003046209067698198,0.00014679856057451995,5.248956918656941e-07,-0.0010662409312041897,0.09987490070879586,-9.806124854993953,-0.005059642456952545,-0.018106559976661208,-0.36446916213366615,-0.010203944847050025,-7.252144339268718e-05,-0.11755400363404687,-6.357973257014267e-05,-8.999891812593891e-05,-5.960957091462336e-06,0.06282000611276789,0.05235001063777568,-2.000278213287743e-10,1.5485653432900649e-09,0.45804703590433155,0.040751461113419825,0.49879849701775136,
8.022500000000823,2760,0.011529451844981206,-0.01996326470730443,-1.7626686028573924,6.19,1551,1703,1611,1513,-0.00024034299195669294,0.0001540391889939478,5.837297508319945e-07,-0.0005798127810482029,0.10083403224993082,-9.806110185295514,-0.005062747184152053,-0.018111100288191743,-0.36446945654979424,-0.010217139545371652,-6.574875594975656e-05,-0.11755404427625699,-5.8812194545974855e-05,-8.86951361780184e-05,-5.790669481174258e-06,0.06282000611276789,0.05235001063777568,-2.000278213287743e-10,1.5485653432900649e-09,0.45804693037409794,0.04075146737304727,0.4987983977471452,
8.072500000000778,2780,0.011529451844981206,-0.01996326470730443,-1.7626686028573924,6.19,1551,1703,1611,1513,-0.00023662516831789867,0.00011101072884005859,7.043179346015049e-07,-0.00021527284129396643,0.10013230436895947,-9.806154252609318,-0.005065733642410483,-0.018115401068186092,-0.3644697324889427,-0.010230090978527883,-5.8987282141968876e-05,-0.11755408765820338,-5.985094104499331e-05,-8.649319533974128e-05,-5.38618759276541e-06,0.06282000611276789,0.05235001063777568,-2.000278213287743e-10,1.5485653432900649e-09,0.4580484620759607,0.040751458196426574,0.4987999202723873,
8.122500000000732,2800,0.011529451844981206,-0.01996326470730443,-1.7626686028573924,6.19,1551,1703,1611,1513,-0.000266331888006405,0.00013191270650624766,5.480094023476696e-07,-0.0008224880175500071,0.10026560350938717,-9.806123433255475,-0.005068593548171087,-0.01811953032808484,-0.36446999342922554,-0.010242076860356778,-5.235842790060601e-05,-0.11755411946861395,-5.698652029834913e-05,-7.843788579048857e-05,-4.952002859457077e-06,0.06282000611276789,0.05235001063777568,-2.000278213287743e-10,1.5485653432900649e-09,0.4580471752735417,0.040751474831970655,0.4987986501055124,
8.17000000000069,2820,0.011529451844981206,-0.01996326470730443,-1.7626686028573924,6.19,1551,1703,1611,1513,-0.00021005991559430647,0.00013858250887555397,5.850738492693521e-07,-0.00040007150603320254,0.10111421155607597,-9.80610992638873,-0.0050713750218475415,-0.018123487728135185,-0.36447023830594666,-0.010253597714055518,-4.625086282483201e-05,-0.11755415159817992,-5.2715697540181004e-05,-7.726826637871453e-05,-4.819182799248324e-06,0.06282000611276789,0.05235001063777568,-2.000278213287743e-10,1.5485653432900649e-09,0.45804690801350656,0.04075148063538816,0.4987983886488947,
8.220000000000644,2840,0.011529451844981206,-0.01996326470730443,-1.7626686028573924,6.19,1551,1703,1611,1513,-0.00020622810643107094,0.00010052453167244322,5.469045646061152e-07,-7.107105594973093e-05,0.10050156669228077,-9.806148954943138,-0.005074050357676276,-0.018127235382121326,-0.36447046771591113,-0.01026490967690068,-4.01629320085112e-05,-0.11755419192135941,-5.357059282309799e-05,-7.539716123344197e-05,-4.480552921367836e-06,0.06282000611276789,0.05235001063777568,-2.000278213287743e-10,1.5485653432900649e-09,0.4580483080895213,0.040751472623486586,0.4987997807130079,
8.272500000000596,2860,0.011529451844981206,-0.01996326470730443,-1.7626686028573924,6.19,1551,1703,1611,1513,-0.00023274919917544304,0.0001184421409196027,4.815214346395419e-07,-0.0006041596419660157,0.10060767715151125,-9.806122172846049,-0.005076611845546954,-0.018130832807346654,-0.3644706846951334,-0.01027537609533938,-3.4194887714568925e-05,-0.11755422429595415,-5.104124556607702e-05,-6.832687405012683e-05,-4.111562183075267e-06,0.06282000611276789,0.05235001063777568,-2.000278213287743e-10,1.5485653432900649e-09,0.4580472949247981,0.04075148697022006,0.4987987818950182,
8.320000000000553,2880,0.011529451844981206,-0.01996326470730443,-1.7626686028573924,6.19,1551,1703,1611,1513,-0.0001835073382743592,0.00012457086141199963,5.998801657181338e-07,-0.00023754557950131591,0.10135818657825732,-9.80610972637851,-0.005079102006244283,-0.018134280367846718,-0.3644708882752941,-0.010285430627086681,-2.869236252094265e-05,-0.11755425111747521,-4.721758427248552e-05,-6.727828205388165e-05,-4.0085624898225145e-06,0.06282000611276789,0.05235001063777568,-2.000278213287743e-10,1.5485653432900649e-09,0.45804695718051347,0.040751492173593425,0.4987984493541069,
8.370000000000507,2900,0.011529451844981206,-0.01996326470730443,-1.7626686028573924,6.19,1551,1703,1611,1513,-0.00017964299663913454,9.09232294775354e-05,4.696445392256601e-07,5.906979145435098e-05,0.10082356155720966,-9.806144173341291,-0.005081496968019092,-0.01813754433940986,-0.36447107890932284,-0.010295305956923064,-2.321570975038149e-05,-0.11755428576795099,-4.7917295698373836e-05,-6.569104386571643e-05,-3.7259612453430207e-06,0.06282000611276789,0.05235001063777568,-2.000278213287743e-10,1.5485653432900649e-09,0.45804814676520716,0.040751485213105176,0.49879963197831234,
8.420000000000462,2920,0.011529451844981206,-0.01996326470730443,-1.7626686028573924,6.19,1551,1703,1611,1513,-0.000203270450533183,0.00010630048835879312,3.8189106300353523e-07,-0.0004092749900546506,0.1009069148085679,-9.806120977759692,-0.0050837896240356435,-0.018140676841309492,-0.3644712592414623,-0.010304441502686347,-1.784719264159689e-05,-0.11755431780341703,-4.568835697545414e-05,-5.9496067705096955e-05,-3.411913202388467e-06,0.06282000611276789,0.05235001063777568,-2.000278213287743e-10,1.5485653432900649e-09,0.45804735587018763,0.04075149767621008,0.4987988535463977,
8.472500000000414,2940,0.011529451844981206,-0.01996326470730443,-1.7626686028573924,6.19,1551,1703,1611,1513,-0.0001610120038326817,0.00011230879636481605,5.68293180335848e-07,-0.00010031665827510319,0.10155989138986843,-9.806109563418769,-0.005086020859840899,-0.01814368002828452,-0.36447142838221175,-0.010313219086336676,-1.2881698877193319e-05,-0.11755434268179485,-4.246475437249931e-05,-5.861390982274229e-05,-3.3303700107101776e-06,0.06282000611276789,0.05235001063777568,-2.000278213287743e-10,1.5485653432900649e-09,0.45804704003030156,0.040751502080938945,0.49879854211124053,
8.522500000000369,2960,0.011529451844981206,-0.01996326470730443,-1.7626686028573924,6.19,1551,1703,1611,1513,-0.0001567085384137779,8.313601831643164e-05,4.4441280515872413e-07,0.00017680107613294552,0.101113484573939,-9.806139600310663,-0.005088175745969178,-0.01814652982737882,-0.36447158662716805,-0.010321858321789628,-7.933410768045687e-06,-0.11755437227911197,-4.3058649163274866e-05,-5.740837585151561e-05,-3.0957167976700853e-06,0.06282000611276789,0.05235001063777568,-2.000278213287743e-10,1.5485653432900649e-09,0.4580480158400329,0.04075149598469404,0.4987995118247269,
8.572500000000323,2980,0.011529451844981206,-0.01996326470730443,-1.7626686028573924,6.19,1551,1703,1611,1513,-0.00017792741649612451,9.550294848245785e-05,3.1312932734260454e-07,-0.000226810827602356,0.10116497349977893,-9.80612030064523,-0.005090239554914479,-0.01814926617256732,-0.36447173629203905,-0.01032986503849315,-3.0760206730150376e-06,-0.11755440217623413,-4.114330148111816e-05,-5.2015559337083014e-05,-2.827372235661081e-06,0.06282000611276789,0.05235001063777568,-2.000278213287743e-10,1.5485653432900649e-09,0.45804738674498535,0.04075150666250243,0.4987988934074878,
8.62000000000028,3000,0.011529451844981206,-0.01996326470730443,-1.7626686028573924,6.19,1551,1703,1611,1513,-0.0001409321629218691,0.0001009909978368988,5.199063812761048e-07,3.884387666082531e-05,0.10175442548296408,-9.806109270245281,-0.0050922430861952105,-0.018151889322355473,-0.3644718766727207,-0.010337541444240046,1.4088629016096125e-06,-0.11755442574456704,-3.8004565207350924e-05,-5.110344655263787e-05,-2.765728742262483e-06,0.06282000611276789,0.05235001063777568,-2.000278213287743e-10,1.5485653432900649e-09,0.45804711602123904,0.04075151097202962,0.49879862699326866,
8.672500000000232,3020,0.011529451844981206,-0.01996326470730443,-1.7626686028573924,6.19,1551,1703,1611,1513,-0.00013634781060634487,7.442083591485445e-05,4.3995225067958896e-07,0.0002861694830631422,0.10135577829118224,-9.806136099604592,-0.005094165334888268,-0.018154371651537098,-0.3644720079813854,-0.010345086865691962,5.842072231674934e-06,-0.11755445053870421,-3.8325002895484765e-05,-4.999082847226525e-05,-2.5717451261786027e-06,0.06282000611276789,0.05235001063777568,-2.000278213287743e-10,1.5485653432900649e-09,0.45804793995311166,0.0407515055348236,0.49879944548793526,
8.720000000000189,3040,0.011529451844981206,-0.01996326470730443,-1.7626686028573924,6.19,1551,1703,1611,1513,-0.00015537212123737027,8.522271632493263e-05,2.576815267057009e-07,-7.446824884243077e-05,0.10139561200605321,-9.806119015037815,-0.005096001362824406,-0.018156751263333458,-0.36447213225246283,-0.010352062511763897,1.0182023084488175e-05,-0.11755447674429341,-3.659416366761294e-05,-4.518891812438093e-05,-2.3429811387633904e-06,0.06282000611276789,0.05235001063777568,-2.000278213287743e-10,1.5485653432900649e-09,0.458047367378986,0.040751515083403904,0.4987988824623899,
8.772500000000141,3060,0.011529451844981206,-0.01996326470730443,-1.7626686028573924,6.19,1551,1703,1611,1513,-0.00012261759360603541,9.023350426393854e-05,4.3770422109360494e-07,0.00015896117134519554,0.10191752429277263,-9.80610912627007,-0.005097783331552678,-0.01815903094306127,-0.36447224879547,-0.01035874497278437,1.4189000922311079e-05,-0.11755449955385357,-3.383344995436212e-05,-4.438447328489511e-05,-2.2983894132093903e-06,0.06282000611276789,0.05235001063777568,-2.000278213287743e-10,1.5485653432900649e-09,0.4580471774336817,0.040751518869934125,0.4987986963036158,
8.820000000000098,3080,0.011529451844981206,-0.01996326470730443,-1.7626686028573924,6.19,1551,1703,1611,1513,-0.00011847768626218966,6.699532722762956e-05,4.1681685298363026e-07,0.00038013913673042076,0.10156779731489393,-9.806132868414913,-0.005099496801375891,-0.01816118696785746,-0.3644723577550849,-0.010365314857873712,1.8157912697938534e-05,-0.11755452183235489,-3.4185746328729346e-05,-4.3444668538330455e-05,-2.135533738576078e-06,0.06282000611276789,0.05235001063777568,-2.000278213287743e-10,1.5485653432900649e-09,0.45804789361362225,0.04075151397049274,0.498799407584115,
8.87250000000005,3100,0.011529451844981206,-0.01996326470730443,-1.7626686028573924,6.19,1551,1703,1611,1513,-0.00013543322229603647,7.62765350520967e-05,2.40153680320317e-07,6.484971993845937e-05,0.10159672261081537,-9.806118069587455,-0.005101135959957838,-0.018163254005211918,-0.36447246089100527,-0.010371389345668528,2.2049765342912403e-05,-0.11755454438358869,-3.2678719881653e-05,-3.925224868157957e-05,-1.9407769367653454e-06,0.06282000611276789,0.05235001063777568,-2.000278213287743e-10,1.5485653432900649e-09,0.45804736396497625,0.0407515223178406,0.4987988862828169,
8.920000000000007,3120,0.011529451844981206,-0.01996326470730443,-1.7626686028573924,6.19,1551,1703,1611,1513,-0.0001068536809662666,8.084246807525638e-05,3.6849420533203384e-07,0.00026690808533246077,0.10205727037706529,-9.806109060871272,-0.005102726786410659,-0.01816523445893921,-0.36447255758721586,-0.010377206077895575,2.564669759559244e-05,-0.11755456549839902,-3.0219017769863028e-05,-3.853733351052815e-05,-1.9079451249620094e-06,0.06282000611276789,0.05235001063777568,-2.000278213287743e-10,1.5485653432900649e-09,0.45804720712995567,0.04075152574532601,0.4987987328752817,
8.969999999999962,3140,0.011529451844981206,-0.01996326470730443,-1.7626686028573924,6.19,1551,1703,1611,1513,-0.00010292061685159621,6.034457170565349e-05,3.773311823862615e-07,0.0004654694128093875,0.10175300203253199,-9.806129922549434,-0.005104256442697952,-0.01816710702380787,-0.3644726479380358,-0.010382927015091628,2.920519399473456e-05,-0.11755458615167108,-3.0496200513921348e-05,-3.774870033469544e-05,-1.7727272162018437e-06,0.06282000611276789,0.05235001063777568,-2.000278213287743e-10,1.5485653432900649e-09,0.4580478589531104,0.04075152135615523,0.4987993803092656,
9.019999999999916,3160,0.011529451844981206,-0.01996326470730443,-1.7626686028573924,6.19,1551,1703,1611,1513,-0.00011800496575519815,6.823269101834665e-05,2.3319981978750477e-07,0.0001894468623584972,0.10177236798764684,-9.806117141941613,-0.005105719530111872,-0.018168901875446085,-0.3644727334765796,-0.010388215426452425,3.2694343841161566e-05,-0.11755460572084223,-2.9168821011223073e-05,-3.407919152541324e-05,-1.6065217449455123e-06,0.06282000611276789,0.05235001063777568,-2.000278213287743e-10,1.5485653432900649e-09,0.45804737460189227,0.04075152862053527,0.49879890322242754,
9.072499999999868,3180,0.011529451844981206,-0.01996326470730443,-1.7626686028573924,6.19,1551,1703,1611,1513,-9.307241887479399e-05,7.237945323198592e-05,3.1868000356120216e-07,0.0003640340761543587,0.10217857724483527,-9.80610899428209,-0.0051071389562797045,-0.018170621472048756,-0.36447281365762885,-0.010393276172099904,3.592096751580144e-05,-0.11755462453063086,-2.6974865619593124e-05,-3.344112042464238e-05,-1.5832820966691105e-06,0.06282000611276789,0.05235001063777568,-2.000278213287743e-10,1.5485653432900649e-09,0.45804722541129167,0.04075153174041422,0.4987987571517059,
9.122499999999823,3200,0.011529451844981206,-0.01996326470730443,-1.7626686028573924,6.19,1551,1703,1611,1513,-8.935415351675521e-05,5.430441352984982e-05,3.292140411815051e-07,0.0005421389302881838,0.10191399250981498,-9.806127401006894,-0.005108503713311805,-0.01817224690175962,-0.3644728885321817,-0.010398255297436564,3.9109178968301456e-05,-0.11755464374681285,-2.718916429537685e-05,-3.27806241313829e-05,-1.470395464304913e-06,0.06282000611276789,0.05235001063777568,-2.000278213287743e-10,1.5485653432900649e-09,0.4580478195152522,0.04075152783296074,0.49879934734821296,
9.16999999999978,3220,0.011529451844981206,-0.01996326470730443,-1.7626686028573924,6.19,1551,1703,1611,1513,-0.00010276631471497569,6.0996692409134996e-05,2.2229732122892418e-07,0.0003005988727698438,0.10192565576320496,-9.806116371199689,-0.00510980886566861,-0.018173804478198614,-0.3644729594386249,-0.010402856908861731,4.22349993767241e-05,-0.11755466120070236,-2.602033803993108e-05,-2.9570042254805937e-05,-1.3288758278839235e-06,0.06282000611276789,0.05235001063777568,-2.000278213287743e-10,1.5485653432900649e-09,0.45804739523965116,0.04075153412739048,0.4987989293670416,
9.222499999999732,3240,0.011529451844981206,-0.01996326470730443,-1.7626686028573924,6.19,1551,1703,1611,1513,-8.102599743702192e-05,6.475752831329545e-05,2.8619606288428955e-07,0.0004513310744119548,0.10228379224777663,-9.80610896501852,-0.005111074611635692,-0.018175296678704475,-0.36447302588877345,-0.010407257497955732,4.51272469862975e-05,-0.11755467761990208,-2.406448109740039e-05,-2.90008507591978e-05,-1.3128061943856282e-06,0.06282000611276789,0.05235001063777568,-2.000278213287743e-10,1.5485653432900649e-09,0.45804724063434715,0.04075153695578317,0.4987987775901303,
9.272499999999686,3260,0.011529451844981206,-0.01996326470730443,-1.7626686028573924,6.19,1551,1703,1611,1513,-7.752880582802763e-05,4.8825728018874936e-05,2.841033973660409e-07,0.0006109647668778099,0.1020538390483443,-9.80612510842027,-0.0051122915294236,-0.018176706727864273,-0.3644730879002954,-0.010411588646490718,4.7981664794432875e-05,-0.11755469517453024,-2.422696486893185e-05,-2.8449370123622148e-05,-1.2193747925851547e-06,0.06282000611276789,0.05235001063777568,-2.000278213287743e-10,1.5485653432900649e-09,0.458047777517118,0.04075153350197283,0.4987993110190908,
9.319999999999643,3280,0.011529451844981206,-0.01996326470730443,-1.7626686028573924,6.19,1551,1703,1611,1513,-8.944817346357047e-05,5.449309021095155e-05,2.0306100007632703e-07,0.0003996965298574293,0.1020593677769675,-9.806115601544096,-0.005113455117911094,-0.01817805756148362,-0.36447314663818153,-0.0104155904585083,5.077999776324518e-05,-0.11755471110191869,-2.319819378712252e-05,-2.5641587724249335e-05,-1.0984338570533072e-06,0.06282000611276789,0.05235001063777568,-2.000278213287743e-10,1.5485653432900649e-09,0.45804741675061894,0.04075153894843742,0.49879895569905636,
9.372499999999595,3300,0.011529451844981206,-0.01996326470730443,-1.7626686028573924,6.19,1551,1703,1611,1513,-7.050089278002292e-05,5.789944597352965e-05,2.625447746526309e-07,0.000529729516797056,0.10237498474082167,-9.806108929715911,-0.005114583174863531,-0.018179351634316217,-0.3644732016733586,-0.010419414847467829,5.337062683699398e-05,-0.11755472546951515,-2.1455524156266686e-05,-2.513411029863773e-05,-1.088225911499321e-06,0.06282000611276789,0.05235001063777568,-2.000278213287743e-10,1.5485653432900649e-09,0.4580472629267706,0.04075154149256893,0.49879880441933955,
9.419999999999552,3320,0.011529451844981206,-0.01996326470730443,-1.7626686028573924,6.19,1551,1703,1611,1513,-6.722651571742412e-05,4.3862594327136206e-05,2.4871900355195224e-07,0.0006727017911223025,0.1021752521813355,-9.806123167281813,-0.005115667645816015,-0.018180574073436,-0.3644732529979471,-0.010423180251339944,5.5924434410716514e-05,-0.11755474114831405,-2.1575482077624337e-05,-2.467518288796946e-05,-1.0102520185265e-06,0.06282000611276789,0.05235001063777568,-2.000278213287743e-10,1.5485653432900649e-09,0.4580477327132009,0.04075153845143391,0.4987992711646348,
9.469999999999507,3340,0.011529451844981206,-0.01996326470730443,-1.7626686028573924,6.19,1551,1703,1611,1513,-7.781387116525546e-05,4.8652582763093825e-05,1.7902330255194402e-07,0.0004879964255036365,0.10217594336861782,-9.806114978011944,-0.005116704435980712,-0.0181817448607701,-0.36447330162912356,-0.01042665849206758,5.8427867813986295e-05,-0.11755475575848529,-2.067040420066265e-05,-2.222079144049809e-05,-9.072301409789479e-07,0.06282000611276789,0.05235001063777568,-2.000278213287743e-10,1.5485653432900649e-09,0.4580474327616162,0.040751543169753844,0.49879897593137,
9.522499999999459,3360,0.011529451844981206,-0.01996326470730443,-1.7626686028573924,6.19,1551,1703,1611,1513,-6.130930585986443e-05,5.1734121965082554e-05,2.400839331045014e-07,0.0006000800656464994,0.10245397939428061,-9.806108926992845,-0.005117709219993002,-0.018182866397151304,-0.36447334718383945,-0.010429980203899519,6.0746695684522296e-05,-0.11755476854199179,-1.9118520811553496e-05,-2.1768593953629324e-05,-9.011977265543251e-07,0.06282000611276789,0.05235001063777568,-2.000278213287743e-10,1.5485653432900649e-09,0.4580472868168698,0.04075154544371208,0.49879883226058186,
9.569999999999416,3380,0.011529451844981206,-0.01996326470730443,-1.7626686028573924,6.19,1551,1703,1611,1513,-5.825564086013234e-05,3.9371914345045e-05,2.2276545007380607e-07,0.0007280384510319438,0.10228059266554175,-9.80612138941354,-0.0051186751189492416,-0.018183925501636344,-0.36447338963556425,-0.010433251897405283,6.303002534678873e-05,-0.11755478235151232,-1.9203742843212953e-05,-2.1388135193943384e-05,-8.369198890032866e-07,0.06282000611276789,0.05235001063777568,-2.000278213287743e-10,1.5485653432900649e-09,0.4580476952769807,0.04075154276530654,0.4987992380422872,
9.622499999999368,3400,0.011529451844981206,-0.01996326470730443,-1.7626686028573924,6.19,1551,1703,1611,1513,-6.765531165132255e-05,4.341173435683068e-05,1.5570566622531604e-07,0.0005666304553957114,0.10227752970684277,-9.80611434471878,-0.005119598415354168,-0.01818493957438534,-0.36447342986900316,-0.010436273327151437,6.52681462966044e-05,-0.11755479562142868,-1.8407844536153574e-05,-1.9243660265204726e-05,-7.487354234578874e-07,0.06282000611276789,0.05235001063777568,-2.000278213287743e-10,1.5485653432900649e-09,0.4580474418765321,0.04075154686120482,0.4987989887377369,
9.669999999999325,3420,0.011529451844981206,-0.01996326470730443,-1.7626686028573924,6.19,1551,1703,1611,1513,-5.328612782127449e-05,4.619628005820661e-05,2.1586556298905357e-07,0.0006631598595503774,0.1025223538618113,-9.806108913907673,-0.005120492909176064,-0.01818591093921821,-0.36447346754967025,-0.010439156720737171,6.734227359266558e-05,-0.11755480717761813,-1.70266124052542e-05,-1.884093267121193e-05,-7.461685591705048e-07,0.06282000611276789,0.05235001063777568,-2.000278213287743e-10,1.5485653432900649e-09,0.45804731265549037,0.0407515488891206,0.49879886154461095,
9.722499999999277,3440,0.011529451844981206,-0.01996326470730443,-1.7626686028573924,6.19,1551,1703,1611,1513,-5.044843797562005e-05,3.531336195849451e-05,2.025834703307367e-07,0.0007776032665807349,0.10237193659774375,-9.806119904020731,-0.005121352731357288,-0.01818682791983807,-0.3644735026373929,-0.01044199777760187,6.938245042624793e-05,-0.11755481933229844,-1.7083639280160806e-05,-1.8526835363797065e-05,-6.925236962761808e-07,0.06282000611276789,0.05235001063777568,-2.000278213287743e-10,1.5485653432900649e-09,0.45804766301386585,0.0407515465234009,0.49879920953726675,
9.769999999999234,3460,0.011529451844981206,-0.01996326470730443,-1.7626686028573924,6.19,1551,1703,1611,1513,-5.878951267667619e-05,3.871254151070546e-05,1.367594206855029e-07,0.0006366194381503242,0.10236600620441468,-9.806113846863767,-0.005122174511567859,-0.018187705659973512,-0.36447353590488885,-0.010444620840512514,7.138208580050452e-05,-0.11755483121090592,-1.6384050275182916e-05,-1.665402302468649e-05,-6.173873089211063e-07,0.06282000611276789,0.05235001063777568,-2.000278213287743e-10,1.5485653432900649e-09,0.45804744651403045,0.04075155008264686,0.4987989965966773,
9.822499999999186,3480,0.011529451844981206,-0.01996326470730443,-1.7626686028573924,6.19,1551,1703,1611,1513,-4.628621008236976e-05,4.1226059284361127e-05,1.9077994888730096e-07,0.000719677809472312,0.10258150187827837,-9.806108929534908,-0.005122970395980228,-0.018188546390048754,-0.3644735670537784,-0.01044712222574245,7.323610983206142e-05,-0.11755484171262717,-1.5155378127321538e-05,-1.629555884249426e-05,-6.170868713925809e-07,0.06282000611276789,0.05235001063777568,-2.000278213287743e-10,1.5485653432900649e-09,0.45804733279680065,0.040751551893731676,0.49879888469053235,
9.87249999999914,3500,0.011529451844981206,-0.01996326470730443,-1.7626686028573924,6.19,1551,1703,1611,1513,-4.3657512884423685e-05,3.164936012687753e-05,1.8416338978560761e-07,0.0008219665887240684,0.10245108757657667,-9.806118529060464,-0.005123735383387113,-0.01818933977076405,-0.36447359603470686,-0.01044958784884522,7.505788197128494e-05,-0.11755485249989715,-1.5189706550484687e-05,-1.60375097017136e-05,-5.730965251792053e-07,0.06282000611276789,0.05235001063777568,-2.000278213287743e-10,1.5485653432900649e-09,0.4580476399572718,0.04075154979884169,0.49879918975611354,
9.922499999999095,3520,0.011529451844981206,-0.01996326470730443,-1.7626686028573924,6.19,1551,1703,1611,1513,-5.10557493800446e-05,3.4502155149779345e-05,1.2247817331339431e-07,0.0006988806056672965,0.10244302671261153,-9.806113328892053,-0.005124466421093939,-0.018190098974862838,-0.3644736235192955,-0.010451863685835465,7.684332525335041e-05,-0.11755486302512672,-1.4575015697352184e-05,-1.4402727198721038e-05,-5.086638865491313e-07,0.06282000611276789,0.05235001063777568,-2.000278213287743e-10,1.5485653432900649e-09,0.4580474497023879,0.04075155288989452,0.49879900259228244,
9.97249999999905,3540,0.011529451844981206,-0.01996326470730443,-1.7626686028573924,6.19,1551,1703,1611,1513,-4.018206149747993e-05,3.676873289933668e-05,1.673014132151634e-07,0.0007702800870354893,0.10263262373995578,-9.806108931399178,-0.005125174196386348,-0.018190826127786074,-0.36447364924859177,-0.010454032309967104,7.849954172672147e-05,-0.11755487251737534,-1.3482634652246088e-05,-1.4083821724770441e-05,-5.103164998153634e-07,0.06282000611276789,0.05235001063777568,-2.000278213287743e-10,1.5485653432900649e-09,0.45804735072523,0.04075155451160604,0.49879890523683607,
10.022499999999004,3560,0.011529451844981206,-0.01996326470730443,-1.7626686028573924,6.19,1551,1703,1611,1513,-3.7754027289036636e-05,2.8344963135439243e-05,1.658362625848562e-07,0.0008616475892087158,0.10251963286076961,-9.806117399346435,-0.005125854454341479,-0.018191512078623333,-0.364473673167018,-0.01045617079167367,8.012529672645429e-05,-0.11755488218105496,-1.3498871230541097e-05,-1.3872969902316791e-05,-4.7357410609694423e-07,0.06282000611276789,0.05235001063777568,-2.000278213287743e-10,1.5485653432900649e-09,0.458047619007038,0.04075155265501186,0.49879917166204985,
10.069999999998961,3580,0.011529451844981206,-0.01996326470730443,-1.7626686028573924,6.19,1551,1703,1611,1513,-4.431280101584351e-05,3.073241753929251e-05,1.1132331570522027e-07,0.0007542392609924528,0.1025100362276652,-9.806112936430287,-0.005126504432154309,-0.018192168278743266,-0.3644736958616235,-0.010458144133768143,8.171852122165277e-05,-0.11755489148916594,-1.2958989172799431e-05,-1.2446650032275335e-05,-4.186796032030369e-07,0.06282000611276789,0.05235001063777568,-2.000278213287743e-10,1.5485653432900649e-09,0.4580474534214606,0.040751555334385584,0.49879900875584615,
10.122499999998913,3600,0.011529451844981206,-0.01996326470730443,-1.7626686028573924,6.19,1551,1703,1611,1513,-3.486170324751165e-05,3.277433471140935e-05,1.470677798204789e-07,0.0008155545723179912,0.10267678294418772,-9.806108959018538,-0.005127133529795861,-0.018192796741128416,-0.36447371710127047,-0.010460023046159122,8.319711469355502e-05,-0.11755489998579402,-1.1988283217248888e-05,-1.2163093457644678e-05,-4.214083008447829e-07,0.06282000611276789,0.05235001063777568,-2.000278213287743e-10,1.5485653432900649e-09,0.4580473630333536,0.04075155678880194,0.4987989198221555,
10.172499999998868,3620,0.011529451844981206,-0.01996326470730443,-1.7626686028573924,6.19,1551,1703,1611,1513,-3.2624786798102945e-05,2.5367806500443248e-05,1.4758273801300165e-07,0.0008971162814935437,0.10257894757843249,-9.806116337950632,-0.005127738133908284,-0.018193389370103098,-0.36447373682697165,-0.010461876614001423,8.464708184845043e-05,-0.11755490867631468,-1.1990272757445352e-05,-1.1991929542931863e-05,-3.9148666105198387e-07,0.06282000611276789,0.05235001063777568,-2.000278213287743e-10,1.5485653432900649e-09,0.45804760276299905,0.04075155514564346,0.4987991579086425,
10.222499999998822,3640,0.011529451844981206,-0.01996326470730443,-1.7626686028573924,6.19,1551,1703,1611,1513,-3.843672957225657e-05,2.7359576314575727e-05,1.013275258443006e-07,0.0008034351593702983,0.10256830628701925,-9.806112514420755,-0.0051283157464649745,-0.018193956114980897,-0.36447375554856115,-0.010463586567094474,8.606793991621963e-05,-0.11755491694365486,-1.151628285777579e-05,-1.0748105323889653e-05,-3.443134664918276e-07,0.06282000611276789,0.05235001063777568,-2.000278213287743e-10,1.5485653432900649e-09,0.45804745784705725,0.04075155746350467,0.4987990153105619,
10.272499999998777,3660,0.011529451844981206,-0.01996326470730443,-1.7626686028573924,6.19,1551,1703,1611,1513,-3.0226877492311203e-05,2.919737293278076e-05,1.3038495649703055e-07,0.0008560352956073101,0.10271489054116732,-9.806108970319597,-0.005128874631338882,-0.018194498871835232,-0.3644737730668536,-0.010465213383809705,8.738716210067492e-05,-0.11755492449074398,-1.0654123776561844e-05,-1.0496094265379879e-05,-3.480652629719164e-07,0.06282000611276789,0.05235001063777568,-2.000278213287743e-10,1.5485653432900649e-09,0.45804737565907133,0.04075155876721798,0.4987989344262893,
10.322499999998731,3680,0.011529451844981206,-0.01996326470730443,-1.7626686028573924,6.19,1551,1703,1611,1513,-2.8171013393166183e-05,2.2687975846769854e-05,1.306020700839477e-07,0.0009287998957552546,0.10263024354899859,-9.806115484340136,-0.005129411726024196,-0.018195010482169264,-0.3644737893211241,-0.01046681894540167,8.867960091144193e-05,-0.1175549322883437,-1.064505225091598e-05,-1.0358176267011076e-05,-3.2302108890134165e-07,0.06282000611276789,0.05235001063777568,-2.000278213287743e-10,1.5485653432900649e-09,0.45804758542916263,0.04075155731592129,0.4987991427450839,
10.369999999998688,3700,0.011529451844981206,-0.01996326470730443,-1.7626686028573924,6.19,1551,1703,1611,1513,-3.33187057027418e-05,2.4343853938937225e-05,9.154922551154922e-08,0.0008471329653990983,0.10261894574610912,-9.806112209037813,-0.0051299247744099104,-0.01819549958490409,-0.3644738047574017,-0.010468299682415041,8.994600966324377e-05,-0.11755493967395168,-1.0229089047325254e-05,-9.274040012891688e-06,-2.828501864595673e-07,0.06282000611276789,0.05235001063777568,-2.000278213287743e-10,1.5485653432900649e-09,0.4580474623681358,0.04075155931813035,0.49879902168626616,
10.42249999999864,3720,0.011529451844981206,-0.01996326470730443,-1.7626686028573924,6.19,1551,1703,1611,1513,-2.619134877474898e-05,2.5996449004495425e-05,1.1638219882500543e-07,0.0008922064998021652,0.10274775685541691,-9.806109005173571,-0.0051304210380493116,-0.018195967957606335,-0.36447381919758276,-0.010469707254872007,9.112234636811689e-05,-0.11755494636183314,-9.46371028280658e-06,-9.050182591462913e-06,-2.86957393662752e-07,0.06282000611276789,0.05235001063777568,-2.000278213287743e-10,1.5485653432900649e-09,0.45804738529671457,0.04075156048450191,0.4987989457812165,
10.472499999998595,3740,0.011529451844981206,-0.01996326470730443,-1.7626686028573924,6.19,1551,1703,1611,1513,-2.4305925571653892e-05,2.0277934607613664e-05,1.1555624593369501e-07,0.0009570842777267461,0.10267456707002466,-9.80611466579321,-0.005130897926439937,-0.018196409272941087,-0.3644738325810069,-0.010471097053167708,9.227372151781368e-05,-0.11755495331816203,-9.446205778589803e-06,-8.940069697827395e-06,-2.667527040935337e-07,0.06282000611276789,0.05235001063777568,-2.000278213287743e-10,1.5485653432900649e-09,0.45804757171523375,0.04075155920511662,0.4987991309203504,
10.519999999998552,3760,0.011529451844981206,-0.01996326470730443,-1.7626686028573924,6.19,1551,1703,1611,1513,-2.886330566750302e-05,2.164920599946316e-05,8.184212233984806e-08,0.000885927514023435,0.10266293075493177,-9.806111865808804,-0.005131353404496854,-0.01819683102777532,-0.3644738452945599,-0.010472378421557387,9.340183503027746e-05,-0.11755495993474933,-9.081321861507348e-06,-7.99560933724573e-06,-2.321459635158379e-07,0.06282000611276789,0.05235001063777568,-2.000278213287743e-10,1.5485653432900649e-09,0.4580474661358428,0.0407515609338116,0.4987990270696544,
10.572499999998504,3780,0.011529451844981206,-0.01996326470730443,-1.7626686028573924,6.19,1551,1703,1611,1513,-2.2679516102456827e-05,2.3133980595429523e-05,1.0409743918088881e-07,0.0009245066656368938,0.10277607129427316,-9.806109021819049,-0.005131793850050726,-0.018197234881561032,-0.3644738571860042,-0.010473595428076802,9.445016118934141e-05,-0.11755496587419519,-8.402180170572231e-06,-7.79684387485144e-06,-2.3672298315197347e-07,0.06282000611276789,0.05235001063777568,-2.000278213287743e-10,1.5485653432900649e-09,0.4580473966407412,0.040751561974999954,0.49879895861574114,
10.619999999998461,3800,0.011529451844981206,-0.01996326470730443,-1.7626686028573924,6.19,1551,1703,1611,1513,-2.095394362538598e-05,1.8112367374255324e-05,1.0278156572182808e-07,0.0009823194313925737,0.10271284194549801,-9.806114025561056,-0.005132217076279745,-0.018197615244342383,-0.3644738681956142,-0.010474797617896896,9.54753045122913e-05,-0.11755497204970163,-8.378396120113202e-06,-7.709870363297503e-06,-2.19741082032366e-07,0.06282000611276789,0.05235001063777568,-2.000278213287743e-10,1.5485653432900649e-09,0.45804755723999935,0.040751560847827585,0.49879911808782695,
10.672499999998413,3820,0.011529451844981206,-0.01996326470730443,-1.7626686028573924,6.19,1551,1703,1611,1513,-2.4986798240202187e-05,1.924294290556321e-05,7.27419359030967e-08,0.0009203528150154692,0.10270111072400345,-9.806111631512248,-0.005132621249544763,-0.01819797861765897,-0.3644738786622141,-0.010475905675486709,9.64796732909303e-05,-0.11755497797109114,-8.058462074548657e-06,-6.887520199945503e-06,-1.9030101791432658e-07,0.06282000611276789,0.05235001063777568,-2.000278213287743e-10,1.5485653432900649e-09,0.4580474689151048,0.040751562340212745,0.49879903125531755,
10.722499999998368,3840,0.011529451844981206,-0.01996326470730443,-1.7626686028573924,6.19,1551,1703,1611,1513,-1.962507366005352e-05,2.057584759967715e-05,9.279319546731022e-08,0.0009533324232477926,0.10280045041295076,-9.806109060405477,-0.005133011969145843,-0.018198326545117965,-0.3644738884491553,-0.010476957137457527,9.741339708690489e-05,-0.11755498326545212,-7.4561286045156445e-06,-6.71112615024866e-06,-1.948135864325096e-07,0.06282000611276789,0.05235001063777568,-2.000278213287743e-10,1.5485653432900649e-09,0.45804740509291386,0.04075156326833638,0.49879896836125026,
10.769999999998324,3860,0.011529451844981206,-0.01996326470730443,-1.7626686028573924,6.19,1551,1703,1611,1513,-1.8048648855950944e-05,1.616808288123498e-05,9.174060915977713e-08,0.0010048204549233898,0.10274586232730128,-9.806113394308797,-0.0051333873929430545,-0.018198654089942735,-0.36447389749878417,-0.010477996291986086,9.832565710385622e-05,-0.11755498873547222,-7.427826099967228e-06,-6.643376964786448e-06,-1.8129014840525954e-07,0.06282000611276789,0.05235001063777568,-2.000278213287743e-10,1.5485653432900649e-09,0.45804754700308875,0.04075156227527272,0.49879910927836146,
10.822499999998277,3880,0.011529451844981206,-0.01996326470730443,-1.7626686028573924,6.19,1551,1703,1611,1513,-2.1615844053475583e-05,1.7095528164830598e-05,6.457885720874155e-08,0.0009508859995631389,0.10273423395414856,-9.806111352279459,-0.00513374587051542,-0.01819896688712002,-0.3644739061045185,-0.010478953776527009,9.921937510456735e-05,-0.1175549940154889,-7.147425408568391e-06,-5.927737453509537e-06,-1.5585175785865763e-07,0.06282000611276789,0.05235001063777568,-2.000278213287743e-10,1.5485653432900649e-09,0.45804747076507585,0.04075156356360258,0.49879903432867845,
