t,frame,xb,xa,xc,xp,pwm1,pwm2,pwm3,pwm4,p,q,r,accx,accy,accz,x,y,z,roll,pitch,yaw,vx,vy,vz,theta1,theta2,b1s1,a1s1,pwr1,pwr2,pwrsum
214.434999999813,81760,-0.659424857206365,-0.302125041072671,5.24836274776844,5.5668,1450,1588,1474,1521,0.0743017660045843,-0.0129075264944831,-0.06073653096797,0.194396294896777,-0.344533526526275,-10.1906356168495,113.45933938186,-15.9433507347199,-70.9277370401902,0.0778501300650847,0.0452544085836694,0.621707804656816,1.12887999086353,-1.96386994054519,2.5459981342007,0.0912353134638455,0.0971406706377757,0.0117093622719274,0.00562403569518253,0.598715807099016,0.0641189182957293,0.662834725394745
214.484999999813,81780,-0.693957164457258,-0.362556040463559,5.36709395710458,5.5668,1450,1585,1471,1521,0.0321958410460316,0.0302500340258323,-0.0572028985590597,0.196002536557189,-0.48010163724837,-11.3277534150401,113.515156004504,-16.0415595743561,-70.801808631644,0.0806044617674604,0.0460708492257539,0.618820060923931,1.1037289864814,-1.96399146881281,2.48738721948349,0.0933120146225757,0.0971406706377757,0.0117075351831833,0.00632598520204599,0.604002438235417,0.0641417767028027,0.66814421493822
214.534999999813,81800,-0.693792102802921,-0.322247751398859,5.42675447184249,5.6447,1448,1585,1470,1520,-0.0173926890439152,0.0197245775291253,-0.0534444555474867,0.136034014018159,-0.720615625735354,-11.2013407533418,113.569674886085,-16.1397371249835,-70.6789507210068,0.0808230851462505,0.0477558017113342,0.616179782551256,1.0769395869009,-1.96368057138477,2.42778600674557,0.0946968716464193,0.0985000256377757,0.0121066719938832,0.00562322481047544,0.616889713808562,0.06522378510071,0.682113498909272
214.584999999813,81820,-0.682100447477052,-0.302054659946769,5.50626906041425,5.7226,1446,1584,1469,1519,-0.0518581434119986,-0.0182948396671851,-0.0513959622745739,0.18541766991558,-0.703733731707708,-10.7792054951536,113.622858525761,-16.2379116490122,-70.5592807391725,0.0787959975785132,0.0480922529944933,0.613582828661719,1.05023645412113,-1.96328620280434,2.36045691194596,0.0960844012169966,0.0998593806377757,0.0119026526084467,0.00527085536463645,0.631120430609992,0.0666945534540468,0.697814984064039
214.634999999813,81840,-0.647476884270756,-0.281862830429015,5.50654380465608,5.7226,1445,1584,1470,1519,-0.0161068021389321,-0.0672081584673085,-0.047486180242356,0.416333714535243,-0.625973550268359,-11.3274362378609,113.674726484233,-16.336131660056,-70.4428090751517,0.0767044908643413,0.046035566046388,0.610945138157375,1.02494379951608,-1.96527448347201,2.2966715264572,0.0960891955040164,0.0998593806377757,0.0112984714304969,0.00491850793955167,0.626133067876896,0.0661911506182521,0.692324218495148
214.682499999813,81860,-0.589778409695157,-0.301878995835674,5.54653031474317,5.8005,1444,1582,1471,1518,0.0240272654124417,-0.0661688888268952,-0.0445791703549965,0.314759777124797,-0.631129072036831,-11.051138971441,113.725364188085,-16.4344174303847,-70.329432194518,0.0768169344181068,0.0427775508275647,0.608376998770529,1.00081531307712,-1.96651070967217,2.23887675182561,0.0967869601050362,0.101218735637776,0.0102916330491527,0.00526779002589787,0.634236372921554,0.0675233014600382,0.701759674381592
214.734999999813,81880,-0.578165713863226,-0.32193861455613,5.62591368198164,5.8005,1443,1580,1470,1518,0.0707855125341607,-0.0366857336239404,-0.0396110067619177,0.195316903220883,-0.41776997793466,-10.5999646515982,113.774843752207,-16.5327484100042,-70.2191520740579,0.0792601601777201,0.0402016868836316,0.606078633456725,0.978113635573035,-1.96617408456258,2.17262177285296,0.0981721998633476,0.101218735637776,0.0100889915068855,0.00561783037256981,0.64366768390309,0.0673474772689193,0.711015161172009
214.782499999813,81900,-0.578156652614893,-0.36214073351628,5.68531144723833,5.8005,1443,1578,1469,1518,0.0444533807075085,0.0110885735990383,-0.0370104080609312,0.18993057481767,-0.500283884635053,-11.4143007078608,113.82316618521,-16.6310371425642,-70.1122035181963,0.082308456173658,0.0398277196539392,0.604131090685745,0.954843079815433,-1.96483005117834,2.10256429568941,0.0992086908670767,0.101218735637776,0.0100888333881021,0.00631935734842443,0.646875849426724,0.0673761678584165,0.71425201728514
214.834999999813,81920,-0.57807076668575,-0.362101966883162,5.74482190189356,5.8784,1442,1577,1468,1517,0.00389486587809674,0.0241498021532961,-0.0330345353002008,0.0850946155122871,-0.69569840431705,-11.3649232287994,113.870301176432,-16.7292153976342,-70.008777928922,0.0835260174907395,0.040999515146855,0.602468460206711,0.930408435453348,-1.96273145453972,2.03421754716917,0.10024714830081,0.102578090637776,0.0100873346786385,0.00631868087067652,0.656100314653532,0.0685417929693254,0.724642107622857
214.884999999813,81940,-0.589590964765166,-0.342022588033701,5.72498207030961,5.8784,1442,1578,1468,1517,-0.0479843687221141,0.00119461538764843,-0.0295526177634088,0.0843298972131332,-0.696358403715397,-10.8075130050285,113.916215606663,-16.8272938186126,-69.9089193906244,0.0823181698845731,0.0419390228571204,0.600976544417916,0.906076273638485,-1.96044927417014,1.96357827238743,0.0999009432396705,0.102578090637776,0.0102883621351243,0.00596829570975342,0.656221096422855,0.0684782385391286,0.724699334961983
214.934999999813,81960,-0.566486190377203,-0.301757351076274,5.70539306984327,5.8784,1441,1579,1469,1517,-0.0349181107968329,-0.0457386468110394,-0.0263755455635081,0.284282581821836,-0.67925885510734,-11.2704859362407,113.96092235188,-16.9253123118802,-69.8123086350333,0.0799452397154102,0.0408926936300998,0.599485984681114,0.882623197570377,-1.96017206325872,1.89976748272343,0.099559115181533,0.102578090637776,0.00988518382205439,0.00526566732484633,0.652651501143399,0.0683954099102732,0.721046911053672
214.984999999813,81980,-0.508871113141555,-0.321776440197768,5.68580520754665,5.8784,1441,1578,1471,1517,-0.00371961724380316,-0.0662661495398167,-0.0230476866798948,0.238395175161666,-0.690704176480322,-10.9653020340195,114.004493267254,-17.0233071322561,-69.7186934073755,0.0788112579146976,0.0380921497241009,0.598019932517302,0.860543064116222,-1.96002670224204,1.8464563755082,0.0992173069844569,0.102578090637776,0.00887980072429233,0.00561500043001638,0.651162737779006,0.068357206549071,0.719519944328077
215.034999999813,82000,-0.474289955083246,-0.341816828682711,5.68591245685339,5.8784,1441,1577,1472,1517,0.056898175281307,-0.0511486732641075,-0.0197835124872998,0.162697279531839,-0.485972624639829,-10.3315890748678,114.04701086925,-17.1212788791376,-69.6278498120483,0.0801227498676172,0.0349950600677491,0.596700863389144,0.840156702035267,-1.95851339137964,1.78919220887542,0.0992191784848596,0.102578090637776,0.00827635951617484,0.00596470520907866,0.652414005154688,0.0683616072932618,0.72077561244795
215.084999999813,82020,-0.485823155163105,-0.361919905609241,5.72547194760791,5.9563,1441,1576,1471,1516,0.0536456000805616,-0.00491039858813608,-0.0155979669764444,0.159976987307677,-0.520654993719906,-11.0472883865102,114.088518661129,-17.2191655803426,-69.5397002229826,0.083066652847868,0.0337422853804078,0.595691372269315,0.820338235433742,-1.95653002553648,1.73456292096705,0.0999094915985258,0.103937445637776,0.00847761385756837,0.0063155039014466,0.657418965044877,0.0696383923683194,0.727057357413197
215.132499999812,82040,-0.474303104800206,-0.3819847435242,5.74529597041014,5.8784,1441,1575,1471,1517,0.0264499954439787,0.0290457628743646,-0.012123419728244,0.0348692918956206,-0.633021185597642,-10.9817867032291,114.129013829741,-17.3168965359935,-69.4543161106791,0.0852004439467001,0.0344641103212716,0.595046502269039,0.799388631954435,-1.95306248206625,1.68128504251391,0.100255420796425,0.102578090637776,0.00827658897873578,0.00666563532306263,0.657107315985219,0.0682271865535386,0.725334502538758
215.182499999812,82060,-0.49742612363533,-0.38206431529214,5.70551068833005,5.8784,1442,1576,1471,1517,-0.0327741102891437,0.020611319745665,-0.00964306114142635,0.00400751953429529,-0.656826228747299,-10.461835459192,114.168456501903,-17.4144444856719,-69.3716384233891,0.084997596541833,0.0359326473559026,0.594621305288716,0.778156493763215,-1.94892106901065,1.62890303477364,0.0995611676241272,0.102578090637776,0.00868008565740869,0.00666702385041318,0.654786409430248,0.0683945731331832,0.723180982563431
215.234999999812,82080,-0.474290270658283,-0.341817122928204,5.68591241152509,5.8784,1441,1577,1472,1517,-0.0442728662240469,-0.0177848226853884,-0.006841530901458,0.161911800771495,-0.678423023786958,-10.9446804478422,114.206834004817,-17.5118342531243,-69.2913438809457,0.0828273431640803,0.0360958857074239,0.594219054319925,0.757215826362013,-1.9465930841706,1.58166104668925,0.0992191776938808,0.102578090637776,0.0082763650229592,0.00596471034366251,0.651861741165492,0.0683451611665482,0.720206902332041
215.284999999812,82100,-0.462755891045491,-0.321713613182742,5.64634298049149,5.8784,1441,1578,1473,1517,-0.0309892837690774,-0.0561001096266454,-0.00326439381251566,0.157766725065028,-0.722259421416218,-10.6777351194648,114.244189382355,-17.6091145685287,-69.2132130454101,0.0807545676616659,0.0342834070447146,0.593811090314346,0.737316275881894,-1.9450755913065,1.54531711913692,0.0985286911223444,0.102578090637776,0.008075090098716,0.00561390409860419,0.648381589712403,0.0683094691763893,0.716691058888792
215.334999999812,82120,-0.405085843391106,-0.341717645087676,5.62668264920327,5.8784,1441,1577,1475,1517,0.0297867468758126,-0.0554171720165706,0.00112411368120086,0.111306075636086,-0.541890965880085,-10.0473219715565,114.280605285239,-17.7063230509172,-69.136915501509,0.0807034097570199,0.0312730700708923,0.593515126284393,0.719367184081224,-1.94306728475038,1.50823097549369,0.0981856183413649,0.102578090637776,0.00706874776714698,0.0059629744553453,0.646966158146027,0.0683084988777894,0.715274657023817
215.382499999812,82140,-0.405166162434396,-0.381915802167255,5.62655167109099,5.8005,1442,1576,1475,1518,0.0476036874099593,-0.0244780047821981,0.00523978216505765,0.132141132185166,-0.502912727817925,-10.5713494029694,114.316142191846,-17.803429770852,-69.0623287115247,0.082801024084039,0.0291989636095691,0.593517821121708,0.702272003493103,-1.94064076933377,1.47323457778242,0.0981833327733057,0.101218735637776,0.00707014933445239,0.00666443229638395,0.643884460987162,0.0669672048602531,0.710851665847415
215.434999999812,82160,-0.405166162434396,-0.381915802167255,5.62655167109099,5.8005,1442,1576,1475,1518,0.0401511734446702,0.020261151951057,0.00621317811279397,0.0148946257040677,-0.591467970457452,-10.5243354753598,114.350811014858,-17.90035206737,-68.9894347635611,0.0852715001167529,0.0291090841132946,0.593795946885737,0.68441290329876,-1.93640918572466,1.44285171348842,0.0981833327733057,0.101218735637776,0.00707014933445239,0.00666443229638395,0.644905776366629,0.0672075786322734,0.712113354998902
215.482499999812,82180,-0.416775589652493,-0.402056159458891,5.60659212463823,5.8005,1443,1576,1475,1518,-0.00808111073435008,0.0276158081132388,0.00749558881602234,-0.0387859221019454,-0.598193696796844,-10.0609874683647,114.384579660555,-17.9970410410991,-68.9181983230437,0.0860847710976181,0.0304080108805194,0.594247736715802,0.666137893058625,-1.93118252032893,1.40944700762852,0.097835038687705,0.101218735637776,0.00727273383940819,0.00701588153112298,0.643548584939877,0.0672290239534345,0.710777608893311
215.532499999812,82200,-0.416690881709453,-0.361854139243258,5.60672976067778,5.8005,1442,1577,1475,1518,-0.0394570238880957,0.0101314562709636,0.00951600928770694,0.0720500320820149,-0.64301131947761,-10.6182943245024,114.417426227115,-18.0935085327549,-68.8483961082433,0.0847736363110699,0.0314699336019296,0.594765040203654,0.64781536421847,-1.9273918525767,1.38092442788826,0.0978374404365952,0.101218735637776,0.00727125568580215,0.00631435627836021,0.643120713905396,0.0672201700439665,0.710340883949363
215.582499999812,82220,-0.405140251042186,-0.341755109071045,5.56714793726436,5.7226,1442,1578,1476,1519,-0.0461129072997928,-0.034774373978317,0.00831491921571902,0.0915877954153444,-0.704734296507314,-10.4383136975302,114.449350584357,-18.1897807738619,-68.779903025494,0.0824157876898865,0.0308888611180759,0.595163493716629,0.629360891030499,-1.9239488513847,1.36002935987542,0.097146737618031,0.0998593806377757,0.00706969718065833,0.00596362820185509,0.637445237822061,0.0660473057322726,0.703492543554334
215.634999999812,82240,-0.358965180773124,-0.341689605060005,5.52762038390638,5.7226,1442,1578,1478,1519,-0.0025720748144637,-0.0505259829208348,0.00801672334589239,0.0798880706566295,-0.569291294447163,-9.75601316406183,114.480396582625,-18.2858944211389,-68.7124869280161,0.0811724849886567,0.0285673233240905,0.595377652654307,0.612636588148819,-1.92059786861765,1.33950015495376,0.0964569818119342,0.0998593806377757,0.00626394220446321,0.00596248515686244,0.634050538676875,0.0660596353346909,0.700110174011566
215.684999999812,82260,-0.370573251008488,-0.361823808157524,5.50766923161882,5.7226,1443,1578,1478,1519,0.0331854397779295,-0.0421260472949783,0.00869697025332611,0.140186566601624,-0.523603215559293,-10.1709695387293,114.510634325338,-18.3818577034623,-68.6459056704129,0.0820295519524836,0.0260778899403885,0.595589733237294,0.597186874906434,-1.91755616303325,1.32234599618494,0.0961088342045163,0.0998593806377757,0.00646650303007031,0.00631382700091414,0.632134743120077,0.0660955819608707,0.698230325080948
215.734999999812,82280,-0.335948212559726,-0.381848629030532,5.50771689709836,5.6447,1443,1577,1479,1520,0.0491059246124087,0.00447219339920805,0.00983311191779166,0.0294772552896854,-0.542127764466206,-10.1689293860654,114.540113002258,-18.4776326285304,-68.5800716891584,0.0843472075878275,0.0250402496470578,0.595976115450329,0.581883476457028,-1.91347122079242,1.31059926710546,0.0961096659671342,0.0985000256377757,0.00586229610913942,0.00666326012514812,0.628572028461824,0.0645965884437278,0.693168616905552
215.784999999812,82300,-0.370657075799798,-0.4020224588666,5.50753293231649,5.6447,1444,1577,1478,1520,0.0133539715644452,0.025462470074053,0.00741272276471849,-0.0335294174270339,-0.546311253001539,-9.74717031913352,114.568812084636,-18.5731543845906,-68.5150125715186,0.0860222842781827,0.0258296263518724,0.596472087595224,0.565885461802704,-1.90733999162936,1.29372333051995,0.0961064557816907,0.0985000256377757,0.00646796577267867,0.00701529345578752,0.630771687452728,0.0650694090398281,0.695841096492556
215.834999999812,82320,-0.382183629488412,-0.381962326537358,5.48771313421271,5.6447,1444,1578,1478,1520,-0.0283855453764929,0.0273341240351284,0.00573764582698212,0.0472879677527891,-0.603763719546512,-10.2483627930253,114.596695336717,-18.6683936253689,-68.4506684624476,0.0856589361780403,0.0272758247053174,0.596922907404586,0.549514738488413,-1.90209626451359,1.27886899142419,0.0957606003047797,0.0985000256377757,0.00666910413454498,0.00666524414664224,0.628678728495242,0.0650981673141365,0.693776895809378
215.884999999812,82340,-0.382104595144986,-0.341758483961434,5.48784166363049,5.6447,1443,1579,1478,1520,-0.0518616199811565,-0.0164849270619443,0.00469219302601244,0.0687113689836014,-0.701678754827905,-10.2628153517869,114.623754778017,-18.7633787709442,-68.3869304006499,0.0834172206254434,0.0276581405598582,0.59721495469142,0.532951724968026,-1.89774689515726,1.27090887456733,0.0957628431431199,0.0985000256377757,0.00666772498525218,0.00596368709369238,0.628524827790522,0.0651004653844808,0.693625293175003
215.932499999812,82360,-0.335910375703094,-0.341693699028866,5.44829424999782,5.6447,1443,1579,1480,1520,-0.0204865177834097,-0.0410910569850447,0.00437687540506693,0.0682185314860953,-0.590554025428785,-9.59749774179167,114.650016142622,-18.8581649340118,-68.3236673391796,0.0815520901166576,0.0260716357252335,0.597309547875033,0.517609935251738,-1.89377077272858,1.26184006109153,0.0950727407752299,0.0985000256377757,0.00586163585599116,0.00596255659661907,0.625289453414148,0.0651119141208873,0.690401367535035
215.982499999812,82380,-0.324415490009041,-0.361793252524248,5.40856143709762,5.6447,1444,1579,1481,1520,0.0188815271033763,-0.0467497516355483,0.00532010498995966,0.141296032265503,-0.540843803852182,-9.90028550937423,114.675541028687,-18.9527804243187,-68.2606640174984,0.0814502160936717,0.0237229210976876,0.597354308747861,0.503710291641408,-1.89058706541116,1.25745310479917,0.0943794031901214,0.0985000256377757,0.00566105010062997,0.00631329380511347,0.621361608652578,0.0651406616497976,0.686502270302376
216.034999999812,82400,-0.312883081009663,-0.381853449717876,5.4283823189071,5.5668,1444,1578,1481,1521,0.0408870698486135,-0.0100421138430152,0.00543156801177546,0.0572171553828497,-0.558607022459599,-10.0008169367817,114.700387069013,-19.0472067678945,-68.1977783702452,0.0831700046631806,0.022191812836017,0.597523396407966,0.490043140864738,-1.88637294399792,1.25709496375245,0.0947252775776968,0.0971406706377757,0.00545980956359082,0.00666334424614228,0.621421370695553,0.064067766177171,0.685489136872724
216.082499999812,82420,-0.312883081009663,-0.381853449717876,5.4283823189071,5.5668,1444,1578,1481,1521,0.0302028345942917,0.0139579437319413,0.00319075295027728,-0.00921267459449215,-0.519677815170998,-9.53879571271643,114.724543280439,-19.1413756746222,-68.135133756494,0.0850266551153643,0.022292816676018,0.597746963933042,0.47600967790504,-1.88028493965554,1.2506037315201,0.0947252775776968,0.0971406706377757,0.00545980956359082,0.00666334424614228,0.622076091747071,0.064139442956446,0.686215534703517
216.134999999812,82440,-0.335989370613081,-0.381889340347101,5.44816575674269,5.5668,1444,1578,1480,1521,-0.00954445376643782,0.0268656633202843,0.000779148443988999,0.0500623208651771,-0.573654840964023,-10.0965073840812,114.747977636096,-19.2352460264953,-68.0727839996714,0.0855765563246963,0.0234623318691427,0.59794593279776,0.461375093165197,-1.87430861051275,1.24177087744073,0.0950704985679278,0.0971406706377757,0.00586301431717045,0.00666397053762227,0.623655739585803,0.0641845180497576,0.68784025763556
216.182499999812,82460,-0.335989370613081,-0.381889340347101,5.44816575674269,5.5668,1444,1578,1480,1521,-0.0354680838711682,0.0027111575195087,-0.00140227134644866,0.0537736973101866,-0.676108790545966,-10.1576763745493,114.770666633767,-19.3288171012532,-68.0107868292496,0.0843153664789394,0.0242842579854523,0.597999437284353,0.446216936447893,-1.8689205965697,1.23806907928543,0.0950704985679278,0.0971406706377757,0.00586301431717045,0.00666397053762227,0.623848623656296,0.0642061898045914,0.688054813460888
216.234999999811,82480,-0.3128044342183,-0.34166135729866,5.42851080420046,5.5668,1443,1579,1481,1521,-0.0352118926544074,-0.0224191994935206,-0.00290367636483359,0.0529172978312082,-0.610724219979567,-9.5891552206594,114.792619665198,-19.4221335662746,-67.9490373658304,0.0824152189700653,0.0237877432600708,0.597849128430975,0.431901110777472,-1.86386603107255,1.23388053722634,0.0947275196460659,0.0971406706377757,0.00545843717708152,0.00596199223342698,0.622351159455208,0.0642222633137604,0.686573422768968
216.282499999811,82500,-0.3128044342183,-0.34166135729866,5.42851080420046,5.6447,1443,1579,1481,1520,0.00116787756863285,-0.0463739353809222,-0.00309106361819748,0.153092342440161,-0.579349778910972,-9.93190792864059,114.813870752409,-19.5152291965839,-67.8874149076062,0.0814617261814946,0.0219263856024902,0.597525181469662,0.418513274106807,-1.85984409297484,1.22944737067995,0.0947275196460659,0.0985000256377757,0.00545843717708152,0.00596199223342698,0.624331893469084,0.0654069611445374,0.689738854613622
216.334999999811,82520,-0.278156962404684,-0.361687187107065,5.42854186395011,5.5668,1443,1578,1482,1521,0.0325930994245653,-0.0229323859515376,-0.00407092318591148,0.087448765406078,-0.581622759530265,-9.96986505784768,114.834471421142,-19.608105275019,-67.8259356172738,0.0824439418265504,0.0201236942516493,0.597196910296608,0.405586118886799,-1.85528719510178,1.22929181717327,0.0947280616386973,0.0971406706377757,0.00485383879393392,0.00631144296358361,0.622238800979479,0.0642939185558083,0.686532719535287
216.384999999811,82540,-0.278240714353963,-0.40187008321531,5.42840560242724,5.5668,1444,1577,1482,1521,0.0398702599937941,0.00667888517765996,-0.00485625957729211,0.0120987537789339,-0.526272747864316,-9.4750589091592,114.854437250032,-19.7007243570988,-67.7646461029768,0.0843928030835156,0.0196847592812821,0.596933304862666,0.392934160438825,-1.84939455521531,1.22464045702284,0.0947256838751232,0.0971406706377757,0.00485530026544885,0.00701263450067252,0.622931905016367,0.0643534056347672,0.687285310651134
216.434999999811,82560,-0.301353740596172,-0.401908220888054,5.44819708880921,5.5668,1444,1577,1481,1521,-0.00150459873793317,0.031266595131959,-0.00502975362613673,0.0481973852602138,-0.573828872248817,-10.0162104304504,114.873758592006,-19.7930528523502,-67.7035249768061,0.0854234818382525,0.020835661449541,0.596778899237356,0.379905865997275,-1.8435026125093,1.21844400988728,0.0950710453124886,0.0971406706377757,0.00525862257337539,0.00701330000306187,0.624417153345773,0.0643635441297235,0.688780697475496
216.484999999811,82580,-0.312883082111095,-0.381853443074524,5.42838231779297,5.5668,1444,1578,1481,1521,-0.0333162484864276,0.0121586617946467,-0.00546743963671116,0.0469359114209083,-0.681435480605393,-10.071328570974,114.892407671712,-19.8850815898396,-67.642634787811,0.0844514523457887,0.0220807877084788,0.596617677170919,0.366073952844741,-1.83801561687785,1.21748683865416,0.0947252775582552,0.0971406706377757,0.0054598095828108,0.00666334413021579,0.622837545404951,0.064416686418532,0.687254231823483
216.534999999811,82600,-0.312804105603855,-0.341661606917962,5.42851081131121,5.5668,1443,1579,1481,1521,-0.0462828174848568,-0.0151180712509636,-0.00543285665409298,0.0458226812546494,-0.634405777580048,-9.58999150929011,114.910380259633,-19.9768507517751,-67.5818562095121,0.0824030179566586,0.0220960713841594,0.596346168933497,0.352793549580147,-1.8328672224402,1.21533808437871,0.0947275197701485,0.0971406706377757,0.00545843144275945,0.00596199658928377,0.623137243422488,0.064425360865787,0.687562604288275
216.584999999811,82620,-0.289692822564706,-0.341629146356622,5.40872094552297,5.5668,1443,1579,1482,1521,-0.00853547076617113,-0.0479449779037213,-0.00469463552086806,0.152686896045486,-0.585386007186232,-9.83545467028189,114.927702548299,-20.068399259072,-67.5210722802188,0.0808902081611967,0.0203663221912761,0.595948361082866,0.340415467997183,-1.82890070346579,1.21488777204606,0.0943821866121437,0.0971406706377757,0.00505513955372631,0.0059614301524884,0.621227058261527,0.0644336269135885,0.685660685175116
216.634999999811,82640,-0.255038711048985,-0.361653241786244,5.4087439981201,5.5668,1443,1578,1483,1521,0.0272858904883783,-0.0298534426147639,-0.0036230670085913,0.0946769430898392,-0.594278394763848,-9.90828974364088,114.944429271258,-20.1597393242873,-67.4602156874392,0.0814863186395975,0.0183489176602664,0.59557606011916,0.328748692398322,-1.82476848778622,1.21860759803104,0.0943825888799636,0.0971406706377757,0.00445042530777698,0.0063108506177353,0.621183694457269,0.0644765766227706,0.685660271080039
216.684999999811,82660,-0.24350486358175,-0.381704015305958,5.42855714148349,5.5668,1443,1577,1483,1521,0.0449969615413355,-0.00316345579098984,-0.00246515024441236,0.0211427735212092,-0.524099628235917,-9.46819249024574,114.96058925392,-20.250842059055,-67.3993463105706,0.0833689549168311,0.0174424415040086,0.595349476714065,0.317504475569984,-1.81920322036837,1.21754969236834,0.0947283282316548,0.0971406706377757,0.00424915966947371,0.00666073661565432,0.623685932020461,0.0645285436987919,0.688214475719252
216.732499999811,82680,-0.278241068810893,-0.401870354428409,5.42840556947751,5.5668,1444,1577,1482,1521,0.0110528921946916,0.0290851922971981,-0.00125510145838089,0.0412913438122679,-0.561372191195198,-9.91735388620071,114.976174984833,-20.3416637370206,-67.3384958729383,0.0849371537214193,0.0182121935696864,0.595321807472571,0.305922252477304,-1.8133526991139,1.21480620566981,0.0947256833001505,0.0971406706377757,0.00485530645072227,0.00701263923334107,0.623530128421194,0.0645763374684144,0.688106465889608
216.782499999811,82700,-0.26662416214385,-0.381739813972524,5.44835667066046,5.5668,1443,1577,1482,1521,-0.0222231167774201,0.020849739421764,-4.62675407572136E-05,0.0249910837224379,-0.666201763969361,-10.1171524514188,114.991160537362,-20.4321818349695,-67.2777247570009,0.0845975744173455,0.0196085396736296,0.595409064434882,0.293409430688411,-1.80763758130235,1.21525855969881,0.0950738300157929,0.0971406706377757,0.00465259142938236,0.00666136130238588,0.625299275138911,0.064598365997549,0.68989764113646
216.834999999811,82720,-0.27815696350506,-0.361687180468032,5.42854186283853,5.5668,1443,1578,1482,1521,-0.0431818586258018,-0.00179378578689697,0.00108277956807204,0.0152592716443835,-0.636899780081739,-9.57455168917382,115.005520041056,-20.5224197710801,-67.2170942515894,0.08294594567871,0.0201562144925262,0.595478351907154,0.280956257086774,-1.80207349033792,1.21259008705092,0.0947280616193002,0.0971406706377757,0.0048538388131355,0.00631144284773251,0.623932960754883,0.0646065038531648,0.688539464608048
216.884999999811,82740,-0.266544408547046,-0.341559886985798,5.44848641249039,5.4889,1442,1578,1482,1522,-0.0217163407167382,-0.0342192408462731,0.000987418564287001,0.122215068726492,-0.590340685020089,-9.91371464411963,115.019266823494,-20.612416688498,-67.1564730119645,0.0811485929396634,0.0191500294104483,0.595473326792814,0.269046777221652,-1.7974975960526,1.21066900021895,0.0950760940107253,0.0957813156377756,0.00465119972911814,0.00596022157646752,0.623814085734767,0.0635000153211252,0.687314101055893
216.932499999811,82760,-0.231889239987366,-0.361579658018552,5.44850163294361,5.4889,1442,1577,1483,1522,0.00900043990345668,-0.0373289562241864,-0.000147506495120567,0.0985081584011774,-0.607094584065149,-10.0031211990154,115.032429043245,-20.7021709309132,-67.095887894134,0.0808053207983851,0.0172161711094493,0.595335666488668,0.25760037447565,-1.79284843090225,1.21206992400365,0.0950763596076339,0.0957813156377756,0.00404646703775173,0.00630956658098908,0.623731156381946,0.0635205529063556,0.687251709288302
216.984999999811,82780,-0.243504864855428,-0.38170402220995,5.42855714012587,5.5668,1443,1577,1483,1521,0.0406192712504957,-0.0168489621687937,-0.00115200882498987,0.0364948682188743,-0.537134225948246,-9.43034155657148,115.045041749712,-20.7916688098058,-67.0353867827987,0.0821675460541379,0.0157351701890919,0.595158055240571,0.246981593821278,-1.78711759374982,1.21045374251463,0.0947283282079643,0.0971406706377757,0.00424915969169943,0.00666073673612896,0.6245704699765,0.0647379965014887,0.689308466477989
217.032499999811,82800,-0.23197383054904,-0.401751123736048,5.44836401942182,5.4889,1443,1576,1483,1522,0.0223249030270022,0.0174656700437756,-0.00291660733134166,0.0521387549750206,-0.540935826193684,-9.8690092765256,115.057122333671,-20.8808786306803,-66.974918851582,0.0838655987628863,0.0158672975979446,0.595070792769743,0.236230926614714,-1.78091742865697,1.20694186942432,0.0950739582516786,0.0957813156377756,0.00404794314305293,0.00701055865775938,0.624253826280729,0.0636465572258498,0.687900383506579
217.084999999811,82820,-0.255094519144377,-0.401788539826078,5.46816521132248,5.4889,1443,1576,1482,1522,-0.00634571463521658,0.0261936873074696,-0.00364228032144365,0.0255727247524179,-0.642537609514069,-10.1088242344427,115.068649264572,-20.9697666358656,-66.9145613987004,0.0843399479276573,0.0170748231999415,0.595023269721426,0.224699434907777,-1.77469575921691,1.20621542316706,0.0954194890503452,0.0957813156377756,0.00445139915904157,0.00701121156853039,0.626332313001131,0.0636829241997841,0.690015237200915
217.134999999811,82840,-0.266624179474883,-0.381740330803289,5.44835663940628,5.4889,1443,1577,1482,1522,-0.0429888707775241,0.00871506490688975,-0.00428966652480622,0.00741686070689146,-0.637795360059417,-9.61242470474388,115.079597506502,-21.0583407628098,-66.8543629209537,0.0830539131100551,0.0180799825030304,0.594909872517523,0.213130534808722,-1.76844510517626,1.20422836191237,0.0950738294704074,0.0957813156377756,0.00465259173180889,0.00666137032108274,0.62468907577409,0.0636977075260319,0.688386783300122
217.184999999811,82860,-0.243425139294336,-0.341528366426523,5.42868685299754,5.4889,1442,1578,1483,1522,-0.0283890282233152,-0.0271377442831228,-0.00444322151930961,0.116359313805701,-0.609597069370318,-9.79851423607218,115.089967459369,-21.1466403828006,-66.7942071065563,0.0810600724716253,0.0175980520898107,0.594641648853961,0.201933360797178,-1.76351037473749,1.20174068375754,0.094730591697575,0.0957813156377756,0.00424776848065835,0.00595967154270817,0.622637580875542,0.0636644830987818,0.686302063974323
217.232499999811,82880,-0.208763739619283,-0.361545659331446,5.42869416510726,5.4889,1442,1577,1484,1522,-0.0051713410531113,-0.0389279818592726,-0.00510218147077446,0.106575934495221,-0.635647275322066,-9.93461070151176,115.099796320986,-21.2346965743486,-66.7339975285043,0.0801601806702345,0.0158914739315406,0.594262801124321,0.191386345961474,-1.75892064885556,1.20599429426414,0.0947307192938895,0.0957813156377756,0.00364292705632869,0.00630897330389909,0.622695205452016,0.0637267734707243,0.68642197892274
217.28499999981,82900,-0.1972292265165,-0.381590635793521,5.44850107579261,5.4889,1442,1576,1484,1522,0.0383765509703689,-0.0231987580498234,-0.00440796691822712,0.0478792889447688,-0.535993179598671,-9.47684867948294,115.109127033528,-21.3225127855332,-66.6737004103406,0.0810710695049821,0.0141842518043102,0.593879131038828,0.181826973645565,-1.75368469273998,1.20719501694749,0.095076349885349,0.0957813156377756,0.00344164980268512,0.00665875814316229,0.624817177453186,0.0636876555398567,0.688504832993043
217.33499999981,82920,-0.208826168004934,-0.401667823365192,5.48811250900013,5.4889,1442,1575,1483,1522,0.0310728745618578,0.00886579930408297,-0.0050988756170113,0.0632596730159803,-0.537759373870555,-9.91609848359696,115.117975191776,-21.4100563010399,-66.6133841627426,0.0829305782257,0.0139159198987385,0.593619587341982,0.172104329688035,-1.74768265357957,1.20384812231929,0.0957675693948202,0.0957813156377756,0.00364401643165827,0.00700910506628794,0.628860904877704,0.0638211321478842,0.692682037025588
217.38499999981,82940,-0.23197409555257,-0.401750868203008,5.44836406579182,5.5668,1443,1576,1483,1521,0.00662766255688849,0.0275659469078214,-0.0041462094950312,0.0234314140741938,-0.644849149651924,-9.99810617861179,115.126321052253,-21.4972771184865,-66.5532020485798,0.0839598701877571,0.0148775320710958,0.593438856054607,0.161819118649062,-1.74153437608796,1.20371180571932,0.0950739590608352,0.0971406706377757,0.00404794776736453,0.00701055419870783,0.627252056362621,0.0649746539583372,0.692226710320958
217.43499999981,82960,-0.243504880832582,-0.381704525991033,5.42855711035608,5.4889,1443,1577,1483,1522,-0.0360859447778881,0.0186019605981495,-0.00439574884199508,-0.00668725023445535,-0.637136394126111,-9.5563093139825,115.134151539296,-21.5841874672182,-66.4930516934115,0.0831753130528337,0.0161942493299407,0.593327631163059,0.151258200552668,-1.73508054169216,1.20418982474846,0.0947283276884815,0.0957813156377756,0.00424915997050074,0.00666074552710888,0.623538556492573,0.0638785490857726,0.687417105578346
217.48499999981,82980,-0.231889224678148,-0.361579144641805,5.44850166140329,5.4889,1442,1577,1483,1522,-0.0351468389513994,-0.0144165776872995,-0.00414513402902147,0.0969482747791647,-0.625129967374921,-9.84261763483186,115.141448851849,-21.6708129526127,-66.4328297474882,0.0812323937911054,0.0162946232242869,0.593123225547391,0.140792832724216,-1.7298358134659,1.20335306339099,0.0950763601042554,0.0957813156377756,0.00404646677060588,0.00630955762256484,0.625418510109075,0.0638802893048324,0.689298799413907
217.53499999981,83000,-0.208763739619245,-0.361545659342425,5.42869416510648,5.4889,1442,1577,1484,1522,-0.017207967561847,-0.0355654196244504,-0.00345414582922675,0.100341483668611,-0.65679899116108,-9.93463722417283,115.148235940926,-21.7571870062804,-66.3725302394191,0.0798045702371211,0.01500226911741,0.592826043030225,0.130867597286374,-1.72536745651019,1.20825117123074,0.094730719293876,0.0957813156377756,0.00364292705632801,0.00630897330409069,0.623514625363842,0.0638934372869505,0.687408062650792
217.58499999981,83020,-0.185632467775335,-0.361512043334481,5.40888049765254,5.4889,1442,1577,1485,1522,0.0253751395333885,-0.029652806734489,-0.00221634262758208,0.0533978695807037,-0.557007203353414,-9.38495662237892,115.154558021375,-21.8433312564355,-66.3120818792748,0.0800003708590058,0.0132277251514057,0.592537730455542,0.122030468226668,-1.72041472720896,1.21190465738474,0.0943849707968047,0.0957813156377756,0.00323928636265177,0.00630838670475204,0.622026702747861,0.0639241468445991,0.68595084959246
217.63749999981,83040,-0.197229576392699,-0.381590397716573,5.44850107765107,5.4889,1442,1576,1484,1522,0.0317161981892489,-0.00320079359762494,-0.000863268101153561,0.0562210891077072,-0.529735526571516,-9.64403505717165,115.160727223918,-21.9335154154747,-66.2483908665327,0.0816470944311016,0.0123774539027424,0.592391820734527,0.113032619866452,-1.71469598210379,1.2126551678755,0.0950763499177791,0.0957813156377756,0.00344165590802479,0.00665875398871955,0.625974503212431,0.0639709772856912,0.689945480498122
217.68749999981,83060,-0.197229576392699,-0.381590397716573,5.44850107765107,5.4889,1442,1576,1484,1522,0.0150552094368973,0.021779521196367,0.000123185122183297,0.0374273027432102,-0.608876009154068,-10.045297613937,115.166148859071,-22.0191007460657,-66.1877071341018,0.0829539933133916,0.0129165745063226,0.592416806303555,0.103831289650873,-1.70873146262614,1.21345073013205,0.0950763499177791,0.0957813156377756,0.00344165590802479,0.00665875398871955,0.625674246503334,0.0640113336078903,0.689685580111224
217.73499999981,83080,-0.197229576392699,-0.381590397716573,5.44850107765107,5.4889,1442,1576,1484,1522,-0.0166092506745452,0.0186382180266814,0.00132560577548347,-0.0168043853231119,-0.632998896780153,-9.67905245724557,115.17110526842,-22.1043724643199,-66.1270422096019,0.0828861039185919,0.0140125844497516,0.592543678980312,0.0942417127918013,-1.70235660428649,1.21470744447551,0.0950763499177791,0.0957813156377756,0.00344165590802479,0.00665875398871955,0.626225418831708,0.0640347130177342,0.690260131849442
217.78749999981,83100,-0.208763396993401,-0.361545893419463,5.4286941647757,5.4889,1442,1577,1484,1522,-0.0294358879466442,0.0038986148221094,0.00280309389223752,0.0447023515938577,-0.608109569236867,-9.6465292539274,115.175577565078,-22.1893514269984,-66.0663361376102,0.0816972202175486,0.0145856200088595,0.592692248702453,0.084744189021297,-1.69672446163938,1.21394733152674,0.0947307192881039,0.0957813156377756,0.00364292107750703,0.00630897738873498,0.624379631825905,0.0640435564576339,0.688423188283539
217.83749999981,83120,-0.197148690390787,-0.341425964530957,5.44863209791858,5.411,1441,1577,1484,1523,-0.0256345902336334,-0.0275184884285622,0.000678292472636533,0.0986830781949338,-0.647524888099939,-10.0365644359867,115.179566468172,-22.2740518764889,-66.005503729158,0.0801393000779172,0.01402092796383,0.592735732561307,0.074933128003391,-1.69138709525789,1.21722646898597,0.095078636221447,0.0944219606377757,0.00344024444729141,0.00595788462963053,0.624009857844379,0.0629636218078183,0.686973479652197
217.88749999981,83140,-0.162479097809635,-0.361437627015788,5.44862364784617,5.411,1441,1576,1485,1523,0.00888769684756503,-0.0291138054930284,-3.82453086220878E-05,0.0482556030569046,-0.586081169449565,-9.5953092614019,115.183092864907,-22.3584840462544,-65.9446246928461,0.0796769656308749,0.0124422591795179,0.592637389334712,0.0660771977253537,-1.68597757254724,1.21947745516167,0.0950784887676836,0.0944219606377757,0.00283526005675031,0.00630708813999086,0.624613304564332,0.0629912909494132,0.687604595513745
217.93749999981,83160,-0.162479097809635,-0.361437627015788,5.44862364784617,5.411,1441,1576,1485,1523,0.0297285781137683,-0.0171873753228809,-0.00181550559103144,0.0720289276330061,-0.526154981426403,-9.59054852208881,115.186185999571,-22.4426434869678,-65.8836718246142,0.0806824498475642,0.0112285685564691,0.5924920871471,0.0577312409128907,-1.68009312696654,1.21861696827199,0.0950784887676836,0.0944219606377757,0.00283526005675031,0.00630708813999086,0.62475026194505,0.0630358619586978,0.687786123903747
217.98749999981,83180,-0.174079383425191,-0.38151092936517,5.48824295268524,5.411,1441,1575,1484,1523,0.0270584409951954,0.0158505454836496,-0.00295109757308107,0.0479482952067739,-0.586359028829776,-10.0902990087624,115.188856713054,-22.5264960248369,-65.822702196824,0.0822900078906775,0.0112078140080153,0.592379022976913,0.0490615174894606,-1.67389590124456,1.21799223474299,0.0957698456371254,0.0944219606377757,0.00303768504074176,0.00665736726598756,0.628370717384622,0.063085170286946,0.691455887671568
218.03499999981,83200,-0.174079383425191,-0.38151092936517,5.48824295268524,5.411,1441,1575,1484,1523,-0.00295226260800567,0.0221602734291887,-0.0028154925191004,-0.0162685737958745,-0.603685774339826,-9.74372861585944,115.191088640496,-22.6100140586142,-65.7618930284607,0.0828864177408212,0.0122497794499903,0.592306211431515,0.0400694904469215,-1.6670917676585,1.21595874494802,0.0957698456371254,0.0944219606377757,0.00303768504074176,0.00665736726598756,0.627260236612846,0.0627331804064267,0.689993417019273
218.08499999981,83220,-0.185612461622409,-0.36147119078138,5.46844064627479,5.4889,1441,1576,1484,1522,-0.0260496464562519,0.0140910620831479,-0.00307481362339644,0.0357262799736982,-0.616476184974865,-9.68878522638622,115.192858587544,-22.6932074650328,-65.7011909414659,0.0821372096695656,0.0132368559141405,0.592207886790515,0.0308958429730577,-1.66075768689446,1.21286766158242,0.095424295390263,0.0957813156377756,0.00323893725528322,0.00630767382770042,0.628912561863671,0.0642316751687682,0.693144237032439
218.13749999981,83240,-0.185612461622409,-0.36147119078138,5.46844064627479,5.4889,1441,1576,1484,1522,-0.0314360214316596,-0.0160691291079559,-0.00426247408186712,0.0911446370579237,-0.689494435152179,-10.0383030826158,115.194164720218,-22.776102714657,-65.6404636089636,0.0805250969468511,0.0132128254510846,0.592013706710823,0.0215339679348433,-1.65526660599033,1.21482985944309,0.095424295390263,0.0957813156377756,0.00323893725528322,0.00630767382770042,0.630315847024346,0.0646162351776592,0.694932082202005
218.18749999981,83260,-0.173997699998635,-0.341354869332674,5.48837522807814,5.411,1440,1576,1484,1523,-0.010932435245952,-0.028769201183711,-0.0049853641600075,0.0537683887756944,-0.620451963757179,-9.70113614809411,115.195028102548,-22.8587281835368,-65.5797248241576,0.0794412012238434,0.0120574709795406,0.59171119617177,0.0128798602375795,-1.64975045936574,1.21534304621118,0.0957721538427315,0.0944219606377757,0.00303625966494838,0.00595664401842051,0.629001545053455,0.0631604911841779,0.692162036237633
218.23749999981,83280,-0.139326747861975,-0.361361803135828,5.48835883761534,5.411,1440,1575,1485,1523,0.0215906273426899,-0.0289341474092794,-0.0050119998511052,0.0876864197393784,-0.546658965229239,-9.63439010458789,115.195476942264,-22.941090490598,-65.5190370816895,0.0796473576724577,0.0105210695972939,0.591361529832673,0.00509542642166056,-1.64434872211044,1.21226522117495,0.0957718678291556,0.0944219606377757,0.00243125155016365,0.00630576501328557,0.629157791431162,0.0631862942028711,0.692344085634033
218.28749999981,83300,-0.127793034294025,-0.381395097659748,5.50815479734127,5.411,1440,1574,1485,1523,0.0306851244705743,0.000332203781605482,-0.00447511765509336,0.0650703233079535,-0.584619532972494,-10.008624459355,115.195537800761,-23.0231714696272,-65.4583984662851,0.081131869666069,0.00982948480645478,0.591083223455142,-0.00266295876890408,-1.6387062572938,1.21196730466974,0.0957718678291556,0.0944219606377757,0.00243125155016365,0.00630576501328557,0.628966414686556,0.0632250498144381,0.692191464500994
218.33499999981,83320,-0.15092952915642,-0.381429966753987,5.52797682786395,5.411,1440,1574,1484,1523,0.0136604484078222,0.0187435212740378,-0.00431824312106345,-0.0102095862376003,-0.595397585710045,-9.79066583740535,115.195205841225,-23.1049331380922,-65.3979382196087,0.0823282966784654,0.0103557382272871,0.59089583438514,-0.0107468364534855,-1.63194211477117,1.20817442058604,0.0964632017589938,0.0944219606377757,0.00263372008375173,0.00665595446842241,0.6326156298659,0.0630919490688772,0.695707578934777
218.387499999809,83340,-0.162462188143707,-0.361394832782068,5.50817919961247,5.411,1440,1575,1484,1523,-0.0202973176191264,0.0223021312560692,-0.00387718265207359,0.0225868823423818,-0.597726667015185,-9.7528653313911,115.194462200117,-23.186368118642,-65.3376333848329,0.0821644500622214,0.0115076597680471,0.590767893619545,-0.0189299871801375,-1.62545858570358,1.20502363296488,0.0961177331460054,0.0944219606377757,0.00283496498307989,0.00630634138061243,0.630700762897012,0.0631120717809391,0.693812834677951
218.437499999809,83360,-0.162462188143707,-0.361394832782068,5.50817919961247,5.4889,1440,1575,1484,1522,-0.0316399356323532,-0.00660417301959434,-0.00496214101930886,0.0776986190480091,-0.694039869856486,-10.0892018562199,115.193290337998,-23.2674885865049,-65.2773836972505,0.0806984774655146,0.0119387785491332,0.590572120496308,-0.0277828024369538,-1.61958977369678,1.20371925611483,0.0961177331460054,0.0957813156377756,0.00283496498307989,0.00630634138061243,0.634791262357399,0.0647633102574632,0.699554572614862
218.487499999809,83380,-0.162462188143707,-0.361394832782068,5.50817919961247,5.411,1440,1575,1484,1523,-0.0218507956629945,-0.0214662590951673,-0.00516319942723843,0.0431168188185941,-0.644472523464956,-9.72927397049537,115.191699669325,-23.3483273265259,-65.2172414367945,0.0793353967754808,0.0112234224401358,0.590282498163988,-0.0359421349231159,-1.61403309846891,1.203229083387,0.0961177331460054,0.0944219606377757,0.00283496498307989,0.00630634138061243,0.631613964466138,0.0633034043144257,0.694917368780564
218.537499999809,83400,-0.127711288188742,-0.341251290247041,5.50828830857823,5.4889,1439,1575,1485,1522,0.00829648934200613,-0.0328344087122932,-0.00475057358521498,0.0908395405182512,-0.591881581427828,-9.63687146383684,115.189719262561,-23.4289054275591,-65.1572021491153,0.0788587402574043,0.00980943932517156,0.58994280207103,-0.0432436712277756,-1.60875063048209,1.19839695077616,0.096119637097458,0.0957813156377756,0.00222856177886574,0.00595483656337621,0.635155226402304,0.0647885803652009,0.699943806767505
218.584999999809,83420,-0.127793019635821,-0.381394622565779,5.50815482578531,5.411,1440,1574,1485,1523,0.0254772250059287,-0.0117708773966093,-0.00493931280869139,0.0819077754433381,-0.597497467814781,-9.99587867313168,115.187377662736,-23.5092112254867,-65.0972623137179,0.0798444412044015,0.00862440850990706,0.58962598122402,-0.0503712415778013,-1.60328981439497,1.19750838834842,0.0961173078227216,0.0944219606377757,0.00222998799261728,0.0066553377123382,0.631729558497121,0.0633540068221824,0.695083565319303
218.637499999809,83440,-0.127793019635821,-0.381394622565779,5.50815482578531,5.411,1440,1574,1485,1523,0.0255802698053443,0.0118478401111014,-0.0040571267191463,-0.0019036545907121,-0.590019411128385,-9.70058242196835,115.184691880131,-23.5892217638525,-65.037412154855,0.081226844612127,0.00863010997844716,0.589424369358996,-0.0573330332972908,-1.59704972518067,1.1976728685329,0.0961173078227216,0.0944219606377757,0.00222998799261728,0.0066553377123382,0.632041011339176,0.0633916566670555,0.695432668006232
218.687499999809,83460,-0.150929899658669,-0.381430224429042,5.52797680287184,5.4889,1440,1574,1484,1522,-0.0100309883723023,0.0235328381359434,-0.00399316564476117,0.0178531981492923,-0.609451216986802,-9.74967888234751,115.181642031507,-23.6689092062382,-64.9776540581834,0.0816190691720311,0.00966100500609587,0.589287191071079,-0.0646374034035745,-1.59040316769775,1.19268863400673,0.0964632013228815,0.0957813156377756,0.00263372654901595,0.00665595896485212,0.635993447089491,0.0645526528013231,0.700546099890814
218.737499999809,83480,-0.150847417560114,-0.341282667736613,5.5281103351104,5.4889,1439,1575,1484,1522,-0.0293107587162036,0.00545680302268806,-0.00394207757830742,0.0611451887179169,-0.686484648086378,-10.0442149504007,115.178208095809,-23.7482755212561,-64.9180371875815,0.0805224999983048,0.0104852723880489,0.589127335957916,-0.0725112507557061,-1.58458200696752,1.19118993390304,0.0961177326331364,0.0957813156377756,0.0028349652664659,0.00630634984816435,0.634096292254948,0.0645597202909186,0.698656012545866
218.787499999809,83500,-0.127711288188742,-0.341251290247041,5.50828830857823,5.411,1439,1575,1485,1523,-0.0299269702779353,-0.0173173706630999,-0.00422843332648797,0.0360608640532346,-0.656335184074815,-9.718667605909,115.17439347709,-23.827356660245,-64.8585304127829,0.0789268485982453,0.0101831249055934,0.588904642125288,-0.0801169886773683,-1.5788872558513,1.19071692644198,0.096119637097458,0.0944219606377757,0.00222856177886574,0.00595483656337621,0.632143387124761,0.0634307780466349,0.695574165171396
218.834999999809,83520,-0.127711288188742,-0.341251290247041,5.50828830857823,5.411,1439,1575,1485,1523,0.00282818221034789,-0.0327449797819089,-0.00426294298782252,0.088933496751314,-0.579773893536701,-9.61063826824969,115.170215499651,-23.9061756090754,-64.7990304402073,0.0781963473838573,0.00881032226814528,0.588583247058283,-0.0868359258530244,-1.57369118087397,1.18943121256657,0.096119637097458,0.0944219606377757,0.00222856177886574,0.00595483656337621,0.632264472288489,0.0634437827015007,0.69570825498999
218.884999999809,83540,-0.116175131447034,-0.361284806634522,5.5280859333349,5.411,1439,1574,1485,1523,0.0188683489138842,-0.0188761525986614,-0.00423097374484714,0.0875226792394869,-0.608310539602902,-10.0108842875157,115.165710597876,-23.9847297583155,-64.7395069561318,0.0788341223973193,0.0075000511442535,0.588268217699754,-0.0932231678357479,-1.56839716042835,1.1898314572232,0.0964651056494619,0.0944219606377757,0.00202725584372292,0.00630442142433776,0.634174729598219,0.0634746746124908,0.69764940421071
218.937499999809,83560,-0.116175131447034,-0.361284806634522,5.5280859333349,5.411,1439,1574,1485,1523,0.028711880660157,0.00253076288788376,-0.00365922431339639,0.00943217278357795,-0.588222632119848,-9.73016392893752,115.160897571762,-24.0629934091265,-64.6800753379541,0.0801364996096691,0.00706375539987827,0.588035598740157,-0.0994380053316614,-1.56218952999941,1.18855613367358,0.0964651056494619,0.0944219606377757,0.00202725584372292,0.00630442142433776,0.634443410557975,0.0635066735348875,0.697950084092862
218.984999999809,83580,-0.127793019635821,-0.381394622565779,5.50815482578531,5.411,1440,1574,1485,1523,0.00571025886781744,0.0180214221734809,-0.00360513859407099,0.0204461849710727,-0.579821011595427,-9.64095911458467,115.1557665115,-24.1409414472819,-64.6207464514882,0.0810396294585186,0.00768026626510477,0.58790116230861,-0.105836214189596,-1.5555558101029,1.18517655931292,0.0961173078227216,0.0944219606377757,0.00222998799261728,0.0066553377123382,0.632563010326825,0.063539741528862,0.696102751855687
219.037499999809,83600,-0.116175116392311,-0.361284328601027,5.52808596151227,5.411,1439,1574,1485,1523,-0.0124445318897553,0.0144006505356688,-0.00335540616181429,0.0443838270467304,-0.650524147507152,-10.0514175139217,115.150297369634,-24.2185627590129,-64.561474042352,0.0808474336096627,0.00856977143790479,0.587798880055382,-0.112895729200476,-1.54937498564296,1.18435976546537,0.0964651061411571,0.0944219606377757,0.00202725558101802,0.00630441308265328,0.634437458110409,0.0635567486757443,0.697994206786153
219.087499999809,83620,-0.127710935666386,-0.341251512392043,5.50828830380399,5.411,1439,1575,1485,1523,-0.0290810943567493,-0.000326384709101647,-0.00281802658351936,0.0121943774118693,-0.659700492477648,-9.71870614127512,115.144478519251,-24.2958744652672,-64.502269856107,0.079811663296522,0.00901259399952202,0.587676272992146,-0.119916172225073,-1.54333578252352,1.18549212403804,0.0961196370141475,0.0944219606377757,0.00222855562735061,0.0059548404398065,0.632712570358665,0.0635664880574658,0.69627905841613
219.137499999809,83640,-0.127710935666386,-0.341251512392043,5.50828830380399,5.411,1439,1575,1485,1523,-0.0154945366961756,-0.0201001331039864,-0.00182969663068783,0.0692261326889359,-0.605138979526107,-9.61899547856649,115.138319100307,-24.3729083066309,-64.4430056939509,0.0786146371820497,0.00843543853436399,0.587513712340247,-0.126328841156243,-1.53790839738131,1.18528820890824,0.0961196370141475,0.0944219606377757,0.00222855562735061,0.0059548404398065,0.632804598353532,0.063571164080132,0.696375762433664
219.187499999809,83660,-0.104569442708372,-0.341219787820713,5.48846017795925,5.411,1439,1575,1486,1523,-0.00148161856687039,-0.0270402585948224,-0.000654800277927075,0.0906473994385024,-0.632767653469888,-9.89466285361286,115.131846244602,-24.4496775259426,-64.3836634635504,0.0781470055974524,0.0072541205237136,0.587355876829972,-0.132392326937365,-1.5328960745499,1.18749075349488,0.0957736362181569,0.0944219606377757,0.00182473657523328,0.00595428684603677,0.63081398608719,0.0635855119003904,0.69439949798758
219.237499999809,83680,-0.0930322121934713,-0.36125100809074,5.50825616073693,5.411,1439,1574,1486,1523,0.0264999344764908,-0.00983221378400845,0.000557927796004467,0.0201068950171751,-0.592343099398665,-9.66947075254151,115.125087190092,-24.5261802096316,-64.3242719438551,0.0789039370471041,0.00622441052267486,0.587271232088293,-0.138024655335052,-1.52727611206422,1.18927969898438,0.0961190761176274,0.0944219606377757,0.00162341190274826,0.00630383163974875,0.633103331002136,0.0636162008700978,0.696719531872233
219.287499999809,83700,-0.116175491265176,-0.361284580506906,5.52808593968434,5.411,1439,1574,1485,1523,0.0157554518570948,0.00888759967508808,0.00195519819034362,0.025145083981279,-0.565638135008075,-9.67430126989921,115.118050274804,-24.6023975404792,-64.2648358992668,0.0800419149931098,0.00624879842251619,0.587336633503958,-0.143481463436252,-1.52116369394282,1.1882365850731,0.0964651057602596,0.0944219606377757,0.0020272621225495,0.00630441747841085,0.63509125263766,0.0636467857042026,0.698738038341863
219.337499999809,83720,-0.116175491265176,-0.361284580506906,5.52808593968434,5.411,1439,1574,1485,1523,-0.00388481742838553,0.0160887088090773,0.00303072178708654,0.0357508457515686,-0.637744831491572,-10.0291706724544,115.110722525115,-24.6783010937671,-64.2054221754347,0.0803697685388249,0.00693702634367154,0.587516441153186,-0.149587957456725,-1.51502651912142,1.187166757209,0.0964651057602596,0.0944219606377757,0.0020272621225495,0.00630441747841085,0.635083429138218,0.0636670908487624,0.698750519986981
219.384999999809,83740,-0.116175491265176,-0.361284580506906,5.52808593968434,5.3331,1439,1574,1485,1524,-0.0253159817608223,0.00605440850751424,0.00225872840307474,-0.00211073719560603,-0.644954465487043,-9.78030303827813,115.103088063241,-24.7538892118608,-64.1460801213864,0.0795980504346112,0.00753968319283346,0.587722200365306,-0.156015570353941,-1.50857240017935,1.18753864409688,0.0964651057602596,0.0930626056377758,0.0020272621225495,0.00630441747841085,0.633366881347811,0.0626004497882974,0.695967331136108
219.437499999809,83760,-0.0929546825096777,-0.32111511074234,5.50838282102602,5.3331,1438,1575,1486,1524,-0.0196311770340274,-0.0140497543134409,0.00104515392469845,0.0543312226347389,-0.599376130422537,-9.61120256572079,115.095134875456,-24.8291720613763,-64.0867087417961,0.078316619920618,0.00730890091864153,0.587789366055909,-0.162047552744426,-1.50264718876798,1.18754272152055,0.0961212863396719,0.0930626056377758,0.00162205900976607,0.00560346023101917,0.631396223750984,0.0626091983265865,0.694005422077571
219.487499999809,83780,-0.0814153700167356,-0.341146788191588,5.5281804457765,5.3331,1438,1574,1486,1524,-0.0029251391693169,-0.026144125409029,-0.000785124229136655,0.0878690716562568,-0.623784016097604,-9.97461056477711,115.086879962063,-24.90416605729,-64.0272453532734,0.0776987771735697,0.00622533470836473,0.587713096073958,-0.167975547016001,-1.49711838079607,1.18926740846079,0.0964667548915678,0.0930626056377758,0.00142069800676422,0.00595301300250856,0.633326797621313,0.0626306893203799,0.695957486941693
219.537499999808,83800,-0.0814153700167356,-0.341146788191588,5.5281804457765,5.3331,1438,1574,1486,1524,0.0238716639305575,-0.0127009235319463,-0.00146684235345347,0.0258461049512657,-0.586124075456046,-9.71143258226263,115.078350009793,-24.9788727654751,-63.9677908549646,0.0783289143641444,0.00516512441820237,0.58757947412862,-0.173303331578212,-1.49116386645009,1.1898751613955,0.0964667548915678,0.0930626056377758,0.00142069800676422,0.00595301300250856,0.633601999347632,0.0626589817232339,0.696260981070866
219.587499999808,83820,-0.0814153700167356,-0.341146788191588,5.5281804457765,5.3331,1438,1574,1486,1524,0.0198743737647463,0.00335187109927215,-0.00174140779310378,0.0319237502713378,-0.555395795522407,-9.62957203993004,115.069558101213,-25.0532761638438,-63.9083532404975,0.0794615312714909,0.00496470395214338,0.587479507994154,-0.178369344004499,-1.48476736573966,1.18804406929484,0.0964667548915678,0.0930626056377758,0.00142069800676422,0.00595301300250856,0.633554102815082,0.0626594994158878,0.69621360223097
219.637499999808,83840,-0.0814982393335297,-0.381277581467983,5.52804570969309,5.411,1439,1573,1486,1523,0.00809398960712304,0.0200886397642553,-0.00202923610357675,0.0340993267402006,-0.630936636539856,-9.98096711928994,115.060494981246,-25.1273503235225,-63.8489387139466,0.0802553687696932,0.00554513649992532,0.587407828396845,-0.184024981118347,-1.47835618519511,1.18699301874293,0.0964644037469123,0.0944219606377757,0.00142214407634229,0.00665329534518165,0.635757404709645,0.0638101938565128,0.699567598566158
219.687499999808,83860,-0.104559305904126,-0.341177773075889,5.54801194268615,5.411,1438,1574,1485,1523,-0.0228269176820471,0.0117284166155698,-0.00277436600349263,-0.00406694046185989,-0.664040202391696,-9.82034098150262,115.051145631663,-25.2010899933286,-63.7896163685134,0.0798356929579206,0.00646033344787507,0.587331709400847,-0.190000358055772,-1.47159868495808,1.18663790277139,0.0968128145126412,0.0944219606377757,0.00182455968799919,0.0059535536887396,0.63773754768601,0.0638306194593706,0.70156816714538
219.734999999808,83880,-0.0814157296545911,-0.341146566314236,5.52818045248006,5.411,1438,1574,1486,1523,-0.0226934850137876,-0.00640222782076586,-0.0032008434584875,0.0454215365944781,-0.628417511376244,-9.63115883418264,115.041499280739,-25.2745162194175,-63.7303673584343,0.078570773910811,0.00658073328947335,0.587177962509001,-0.195723488829075,-1.46550561314316,1.18415128906429,0.0964667550085449,0.0944219606377757,0.0014207042824448,0.00595300913074877,0.635911427484346,0.0638630301485455,0.699774457632891
219.787499999808,83900,-0.0929543246938411,-0.321115328628478,5.50838281477874,5.3331,1438,1575,1486,1524,-0.0134186442867798,-0.0241515585580724,-0.00364437665255118,0.0878250200653838,-0.644173868346,-9.88952667623366,115.031571804768,-25.347658847022,-63.6710470525556,0.0775992187000398,0.00585030394779716,0.58695486374978,-0.201219900862944,-1.46019544597152,1.18784757259187,0.0961212862306569,0.0930626056377758,0.00162205276587971,0.00560346403313229,0.632020413204548,0.0627558066830193,0.694776219887568
219.834999999808,83920,-0.0814153700174162,-0.341146788184445,5.52818044576459,5.3331,1438,1574,1486,1524,0.0109465801740054,-0.0187561725816619,-0.00391171216007233,0.0355288478423479,-0.610345125406798,-9.71024705636311,115.021390411889,-25.4205250562674,-63.6115931658561,0.0775617478917714,0.0046946795799348,0.586682026084758,-0.20611908017925,-1.45449062010863,1.19046903715841,0.09646675489136,0.0930626056377758,0.00142069800677611,0.00595301300238391,0.634153562333472,0.06277940749631,0.696932969829782
219.884999999808,83940,-0.0814153700174162,-0.341146788184445,5.52818044576459,5.3331,1438,1574,1486,1524,0.0169519476391448,-0.00790686346324916,-0.00361619309944636,0.0473178981382127,-0.56589094453564,-9.60835971222614,115.010975529931,-25.4931077909199,-63.5521023315487,0.0782810334235457,0.0040306970523081,0.586455997561244,-0.210500703885913,-1.44850536863107,1.18958915092573,0.09646675489136,0.0930626056377758,0.00142069800677611,0.00595301300238391,0.634216022009072,0.062805339284318,0.69702136129339
219.934999999808,83960,-0.0698793005543076,-0.361173350594582,5.54797166257612,5.3331,1438,1573,1486,1524,0.0102251749126023,0.00828632676168802,-0.00318387229393493,0.0476877952138337,-0.616930356573409,-9.9971543005921,115.000331465884,-25.56538190949,-63.4925719522586,0.079058442358387,0.00408100455538373,0.586288701389988,-0.215200680447314,-1.44242619769878,1.19012837364213,0.0968121116247212,0.0930626056377758,0.00121939359464485,0.00630247651644081,0.636123088978772,0.0628164764512548,0.698939565430027
219.987499999808,83980,-0.0814153710766936,-0.341146781631147,5.52818044472752,5.3331,1438,1574,1486,1524,-0.00498804345376059,0.0104222600122464,-0.00383423737409938,-0.00180949742868699,-0.63368803647636,-9.7524902527788,114.989448075257,-25.6373324603217,-63.4330652316124,0.0792362562141229,0.00460946371661286,0.586151498444671,-0.220254877746649,-1.43576495481911,1.1914138157775,0.096466754873263,0.0930626056377758,0.0014206980252605,0.00595301288802887,0.634420333987788,0.0628548991949839,0.697275233182772
220.037499999808,84000,-0.0814153710766936,-0.341146781631147,5.52818044472752,5.3331,1438,1574,1486,1524,-0.0151401128617224,0.00424852941021317,-0.00374605804171052,0.0317120821368781,-0.608854938947069,-9.63587155709637,114.978313579606,-25.7089670879997,-63.3735091251773,0.0786917620440344,0.00501016265464818,0.58599869823791,-0.225128830174276,-1.42950042977167,1.19127270998532,0.096466754873263,0.0930626056377758,0.0014206980252605,0.00595301288802887,0.634413527441656,0.0628670634153348,0.697280590856991
220.084999999808,84020,-0.0698006309960382,-0.321045432140619,5.5480995598702,5.411,1437,1574,1486,1523,-0.0141761454855755,-0.0117574110035285,-0.00371904343781418,0.0702356786262519,-0.666433343335783,-9.98206165723399,114.966925663441,-25.7802968384793,-63.3139085475485,0.0778759292030467,0.00487340810123981,0.585790273830589,-0.230238354874085,-1.42378404212542,1.1910382670362,0.0968143434325028,0.0944219606377757,0.00121802081085306,0.00560224433941915,0.638980656313841,0.0641238372972462,0.703104493611087
220.134999999808,84040,-0.0698006309960382,-0.321045432140619,5.5480995598702,5.3331,1437,1574,1486,1524,-0.000344962099285514,-0.0145882138747725,-0.00376793771075782,0.029875220987173,-0.626480036417488,-9.75880352050361,114.955298174232,-25.8513374387905,-63.2543639038128,0.077535219611499,0.00417772841006306,0.585561869179794,-0.234956796718417,-1.41787510607262,1.1915495723122,0.0968143434325028,0.0930626056377758,0.00121802081085306,0.00560224433941915,0.636532076447503,0.0628913363571308,0.699423412804634
220.187499999808,84060,-0.0582661345996465,-0.341115005419886,5.50834294300875,5.3331,1438,1574,1487,1524,0.0119182495941341,-0.0109118996209704,-0.00308047174122627,0.0464275270102458,-0.575495848995591,-9.52393314531556,114.943444919881,-25.9220874062776,-63.1948068283482,0.0778230031894261,0.00350085303070922,0.585323641680876,-0.239035888990493,-1.41207195795985,1.19241203040347,0.0961205904682705,0.0930626056377758,0.00101674384873601,0.00595245839314236,0.632447331754342,0.0628427185872637,0.695290050341605
220.237499999808,84080,-0.0814157351469193,-0.341146566319834,5.52818045361512,5.3331,1438,1574,1486,1524,0.0105186923083023,0.00554241436641706,-0.00230833438650725,0.0499535144951905,-0.619747022928062,-9.93055405638662,114.931386040822,-25.9925488338125,-63.1350409930135,0.0784908818356337,0.00340364792433394,0.585180211905918,-0.243249684946404,-1.40633199060924,1.19678095219622,0.0964667550283518,0.0930626056377758,0.00142070437828592,0.00595300913084646,0.634867233410993,0.0629378066869136,0.697805040097906
220.284999999808,84100,-0.0698006310025138,-0.32104543213677,5.54809955987011,5.3331,1437,1574,1486,1524,-0.00391765628468173,0.00571347613173395,-0.0021814058773869,0.00243334117601796,-0.632461702289411,-9.80475407244207,114.91911509702,-26.0627005250966,-63.0751814505148,0.0786261773224403,0.00374306311924061,0.585096995112534,-0.247770790549491,-1.39982624364106,1.19766100592706,0.0968143434325012,0.0930626056377758,0.00121802081096607,0.00560224433935199,0.636777122881542,0.0629571332815186,0.699734256163061
220.334999999808,84120,-0.0698006310025138,-0.32104543213677,5.54809955987011,5.3331,1437,1574,1486,1524,-0.00857376014053474,-0.000655586482930124,-0.0021586485692733,0.0353464609748092,-0.602923102321628,-9.65829902283251,114.906614811384,-26.1325349276366,-63.0153656862257,0.0782774406403519,0.00387543237670678,0.584998116523593,-0.252201965945228,-1.3934609099763,1.19557100915814,0.0968143434325012,0.0930626056377758,0.00121802081096607,0.00560224433935199,0.636859267325407,0.0629688874968626,0.69982815482227
220.384999999808,84140,-0.0698006310025138,-0.32104543213677,5.54809955987011,5.3331,1437,1574,1486,1524,-0.00911782569438094,-0.00953629775824242,-0.00203136904737378,0.0659825269022515,-0.644037505663593,-9.94863047642941,114.893888854296,-26.2020601448049,-62.9555615318545,0.0777868614058528,0.00364131822691411,0.584874264443835,-0.256704715271848,-1.3875917682489,1.19553009673056,0.0968143434325012,0.0930626056377758,0.00121802081096607,0.00560224433935199,0.636938961608644,0.0629800232543447,0.699918984862989
220.437499999808,84160,-0.0698006310025138,-0.32104543213677,5.54809955987011,5.3331,1437,1574,1486,1524,-0.00194180182129816,-0.01086029521541,-0.00177982146311553,0.0228958033332307,-0.631447622826172,-9.75988253024398,114.880951290655,-26.2712849589173,-62.8957695083509,0.0775311558216172,0.00310956871802498,0.584736859974066,-0.260858692814146,-1.38151931763315,1.19681979314654,0.0968143434325012,0.0930626056377758,0.00121802081096607,0.00560224433935199,0.637038821482287,0.0629961435331923,0.700034965015479
220.487499999808,84180,-0.0582624738603722,-0.341072451702102,5.56789242209484,5.3331,1437,1573,1486,1524,0.00482612728227791,-0.00707338461109637,-0.00192504352268955,0.0398504133722603,-0.588778341000323,-9.67377017251271,114.867812805442,-26.3402102014843,-62.8360246514713,0.077608313589466,0.0026366173640513,0.584607273853901,-0.264635285978252,-1.3753380845976,1.19341458290189,0.0971597288783228,0.0930626056377758,0.00101667996883569,0.00595171583076704,0.639020371060845,0.0630145711885412,0.702034942249386
220.534999999808,84200,-0.0466478010995916,-0.320974953869781,5.58780791622245,5.3331,1436,1573,1486,1524,0.00321380358182805,-0.000955981314545741,-0.00210657279161479,0.0529239128372093,-0.628875346637613,-10.0219183845062,114.854480328479,-26.4088272098079,-62.7763727125051,0.0778364904118548,0.00251937021093756,0.584499231729852,-0.268609891620401,-1.3692830718342,1.19109604468654,0.0975072542508497,0.0930626056377758,0.000814003929160045,0.00560101449359304,0.640990885860455,0.0630341026764221,0.704024988536877
220.584999999808,84220,-0.0466478011073331,-0.3209749538773,5.58780791620877,5.3331,1436,1573,1486,1524,-0.00158870631874899,0.00267729657710646,-0.00228911484327255,0.00595104638601544,-0.634612910416689,-9.84356063843679,114.840952630242,-26.477127561516,-62.7168765965099,0.0779388686634069,0.00258242283351673,0.584391780278063,-0.272579500262166,-1.36287971459706,1.18984562789807,0.097507254250611,0.0930626056377758,0.000814003929295148,0.00560101449372424,0.641161448209619,0.0630526321967597,0.704214080406378
220.637499999807,84240,-0.0466478011073331,-0.3209749538773,5.58780791620877,5.3331,1436,1573,1486,1524,-0.00292799908570996,-8.79769958033661E-06,-0.00257515676259808,0.0307954233190036,-0.601254190416657,-9.70338066345141,114.827226607499,-26.5451144877576,-62.6575082624008,0.077808477424444,0.00264608150967273,0.584274260718857,-0.276438998877018,-1.35649823824694,1.18550204186231,0.097507254250611,0.0930626056377758,0.000814003929295148,0.00560101449372424,0.641177698912017,0.0630659157594604,0.704243614671478
220.684999999807,84260,-0.0466478011073331,-0.3209749538773,5.58780791620877,5.3331,1436,1573,1486,1524,-0.00483727757464033,-0.00288685827316547,-0.00274987056549614,0.055750678414698,-0.64122905575142,-9.9848489673747,114.813301765491,-26.612789530339,-62.5982672409005,0.0775994061796402,0.00260259639174373,0.584136876179744,-0.280445838899839,-1.35052802276106,1.18313796155862,0.097507254250611,0.0930626056377758,0.000814003929295148,0.00560101449372424,0.641293843415049,0.0630790241089364,0.704372867523985
220.737499999807,84280,-0.0466478011073204,-0.320974953877288,5.58780791620879,5.3331,1436,1573,1486,1524,-0.00439796326679372,-0.00327997399409365,-0.0027485250858589,0.0135853048890024,-0.640516516594483,-9.81639359157661,114.799185662688,-26.6801592446505,-62.5391438489129,0.077396773210228,0.0024486627454882,0.583986199618756,-0.284270146599771,-1.34439923041639,1.18251470254508,0.0975072542506112,0.0930626056377758,0.000814003929294931,0.00560101449372402,0.641389118950052,0.0630940653615494,0.704483184311602
220.787499999807,84300,-0.0234954363703737,-0.32094599067864,5.56796535027144,5.3331,1436,1573,1487,1524,0.0020853120622325,-0.00820325564962493,-0.00188184332356141,0.0366041840494514,-0.597411372002164,-9.63489810546449,114.784886536493,-26.7472339713019,-62.4800404775629,0.0772382408890596,0.00217144418020497,0.583842739010679,-0.287652326561439,-1.33853191044289,1.18303002052887,0.0971610014750046,0.0930626056377758,0.000409995164635222,0.0056005090859076,0.639408224513009,0.063105209580637,0.702513434093646
220.834999999807,84320,-0.0234954363703737,-0.32094599067864,5.56796535027144,5.3331,1436,1573,1487,1524,0.00644920104960164,-0.000409397328361137,-0.00111136830149042,0.0484295845251416,-0.625174275108099,-9.92678107866993,114.770412111584,-26.8140190028167,-62.4208574059172,0.0775063872605481,0.00197562269992719,0.583752001444962,-0.291232140076404,-1.33283810853577,1.18322217045764,0.0971610014750046,0.0930626056377758,0.000409995164635222,0.0056005090859076,0.639500551405407,0.0631240946320799,0.702624646037487
220.887499999807,84340,-0.0466481834214495,-0.32097519352347,5.58780790065025,5.3331,1436,1573,1486,1524,0.000258738918884396,0.00351064003319028,-0.000727290265858858,0.00314585587337938,-0.635023734286609,-9.82709120751508,114.755762077227,-26.8805019094468,-62.3617300135849,0.0777172015185658,0.00206005041361727,0.583713389598897,-0.294876973089213,-1.32657755632281,1.18226471992459,0.0975072539791148,0.0930626056377758,0.000814010600676478,0.00560101867554989,0.641626446257449,0.063141525360256,0.704767971617705
220.934999999807,84360,-0.0466503764668268,-0.321016426120821,5.52826033493301,5.3331,1437,1574,1487,1524,-0.00626081942965758,0.00691945596394871,0.000576481451304898,0.0184710267959275,-0.605722738236577,-9.55158220546468,114.740933877302,-26.9466845229082,-62.3026392685293,0.0776205717941884,0.00231344875700019,0.583721306805575,-0.298175714803848,-1.32071670861554,1.1833297134592,0.0964681489573489,0.0930626056377758,0.000814048869318312,0.00560173818437366,0.635765379878053,0.0631545142865629,0.698919894164616
220.984999999807,84380,-0.0581884575760658,-0.300948642161136,5.56801334062941,5.3331,1436,1574,1486,1524,-0.0125967781389748,-0.00339210764572809,0.0023431876308243,0.0517803771737433,-0.648874564953273,-9.94555432224436,114.725935665447,-27.0125859939626,-62.2433397082895,0.0770931397233651,0.0024524270340947,0.583810663905311,-0.301711755408046,-1.31529638973206,1.18636393899101,0.0971618389067511,0.0930626056377758,0.00101538838467454,0.00525155535427716,0.639803121596454,0.0631609769890281,0.702964098585482
221.034999999807,84400,-0.0350371388325455,-0.300921043059243,5.54817247012751,5.2552,1436,1574,1487,1525,-0.00798936820920824,-0.00964836792120001,0.00189560122235403,0.017668931492716,-0.626792427990366,-9.72993728608702,114.71076434319,-27.0782028714105,-62.1839838783279,0.0765388543313994,0.00209844253628681,0.583912418205262,-0.305293611145834,-1.30939530695074,1.18883914339038,0.096815615716493,0.0917032506377757,0.000611397872600112,0.00525107374994913,0.635969932760255,0.0621063900038048,0.69807632276406
221.087499999807,84420,-0.0350371388325455,-0.300921043059243,5.54817247012751,5.2552,1436,1574,1487,1525,0.00514696969269256,-0.013638769539298,0.00134077655185599,0.0429611900457942,-0.578180696997976,-9.58573838915846,114.695421874592,-27.1435318933049,-62.1245206417939,0.0764440311253873,0.00145180431266603,0.583959663864168,-0.308408928372228,-1.30353061662461,1.19014684449658,0.096815615716493,0.0917032506377757,0.000611397872600112,0.00525107374994913,0.636038533602055,0.062123433400425,0.69816196700248
221.137499999807,84440,-0.0234954363703737,-0.32094599067864,5.56796535027144,5.3331,1436,1573,1487,1524,0.00982450200977855,-0.000892883177527484,-0.000585066093778618,0.0488427378787203,-0.633082455607052,-9.9167156718647,114.679915177043,-27.2085577125318,-62.064987881902,0.076888062897376,0.00109617523664119,0.583944069345916,-0.311732972933463,-1.29750449735229,1.19007004842912,0.0971610014750046,0.0930626056377758,0.000409995164635222,0.0056005090859076,0.641580397051619,0.0635678650399538,0.705148262091573
221.187499999807,84460,-0.0234954363703737,-0.32094599067864,5.56796535027144,5.2552,1436,1573,1487,1525,0.00655371936406062,0.00755195344678585,-0.00160913758008264,-0.00151727603508909,-0.618862865663779,-9.78453460555107,114.664250902646,-27.27327537781,-62.0054651642382,0.077343109314156,0.00126436823167892,0.583923074105703,-0.315048582024447,-1.2911755113913,1.19140549470331,0.0971610014750046,0.0917032506377757,0.000409995164635222,0.0056005090859076,0.638250358407034,0.0621761021846828,0.700426460591717
221.234999999807,84480,-0.0466481834214558,-0.320975193523476,5.58780790065027,5.2552,1436,1573,1486,1525,-0.00797181356371683,0.0106168618879722,-0.00247816229890848,0.0157440299883813,-0.600617848655272,-9.70658744210627,114.648419260937,-27.3376817448185,-61.945926894018,0.077355650912434,0.00175801984552425,0.583878861343349,-0.318314146995761,-1.28483904197561,1.19028333627469,0.0975072539791151,0.0917032506377757,0.000814010600676602,0.00560101867555002,0.640159754675417,0.0621938463998827,0.7023536010753
221.287499999807,84500,-0.0350371388252111,-0.300921043056661,5.54817247011542,5.2552,1436,1574,1487,1525,-0.0166773946916676,-0.00369795526559327,-0.00232681325408726,0.0532219016193517,-0.646285183025895,-9.85599072748124,114.63241656907,-27.4017821792115,-61.8863671730663,0.0766399953831391,0.00197930645791467,0.583791124143099,-0.321736086244917,-1.27917399944099,1.19211859829371,0.096815615716282,0.0917032506377757,0.000611397872472108,0.00525107374990406,0.636324540171382,0.0621983558338176,0.6985228960052
221.334999999807,84520,-0.0350371388252111,-0.300921043056661,5.54817247011542,5.3331,1436,1574,1487,1524,-0.0108159700717941,-0.0109861496359453,-0.00182674443500015,0.0221303990702352,-0.653049220028256,-9.73165774597798,114.616250124892,-27.465595061118,-61.8266612368765,0.0759562013610336,0.0015991125749212,0.583632961513322,-0.32486654279168,-1.27362993928847,1.19646980111603,0.096815615716282,0.0930626056377758,0.000611397872472108,0.00525107374990406,0.638366057512688,0.0632810260354624,0.701647083548151
221.387499999807,84540,-0.0118819337702204,-0.3008547299141,5.58787378665328,5.2552,1435,1573,1487,1525,0.00680505137327317,-0.0171499489720111,-0.00371788554468102,0.0474712082597412,-0.586383557175921,-9.67338646063216,114.599932291949,-27.5291308948977,-61.7668566441263,0.0757761610512801,0.000855756805031703,0.583436720333628,-0.327817070099965,-1.26765202735642,1.19519957266084,0.0975084036898676,0.0917032506377757,0.000207339544262519,0.00524991658556639,0.640362487973263,0.0622260728543214,0.702588560827585
221.434999999807,84560,-0.0234954243968385,-0.32094554711045,5.56796537382916,5.2552,1436,1573,1487,1525,0.0134958198763219,-0.00324444622713762,-0.00335347490210788,0.054001385534729,-0.611448188038932,-9.87594727376222,114.583473533082,-27.5923788879682,-61.7071197124267,0.0763888148122145,0.000341817209075164,0.583249580180844,-0.330528669938424,-1.26203740127225,1.19370867981955,0.0971610018860868,0.0917032506377757,0.00040999495569702,0.0056005013456427,0.638620666675883,0.0622447896963779,0.700865456372261
221.487499999807,84580,-0.0118819214252918,-0.300854283455848,5.58787380991854,5.2552,1435,1573,1487,1525,0.00976509392371587,0.00631488933906998,-0.00377451258651507,0.0016421694713256,-0.618126088166372,-9.80916101758015,114.566881042617,-27.6553240083433,-61.6474179056957,0.0770080626186598,0.000432488677575525,0.583087408634448,-0.333342999994278,-1.2557842014214,1.19474737585772,0.0975084040958464,0.0917032506377757,0.00020733932884353,0.0052499087948699,0.640581066456689,0.0622685265334675,0.702849592990156
221.537499999807,84600,-0.0466481834215194,-0.320975193515226,5.58780790065085,5.2552,1436,1573,1486,1525,-0.00859660711298457,0.0131545099786285,-0.00349147034433651,0.0124395513493713,-0.605805977898096,-9.69918254090251,114.550149009308,-27.7179640692551,-61.5877049116016,0.077114463751273,0.000951136056629708,0.582963915447197,-0.336018849030962,-1.2495923875195,1.19389620370297,0.0975072539791252,0.0917032506377757,0.000814010600677702,0.00560101867540603,0.64055864848767,0.062282998321293,0.702841646808963
221.584999999807,84620,-0.0465777466403755,-0.280855741795398,5.5879217696888,5.2552,1435,1574,1486,1525,-0.0182872139510998,-0.0018455284868701,-0.00359549877257422,0.0518353468027184,-0.650954330377222,-9.9193153256368,114.533266089166,-27.780294940995,-61.5280615017135,0.0763545734207503,0.00127851100714814,0.582808248169883,-0.339175983423708,-1.24373781362831,1.19092957942548,0.0978546856464019,0.0917032506377757,0.000611366661465473,0.0052503896249417,0.640358998275769,0.0622141633230926,0.702573161598862
221.637499999807,84640,-0.0234257468396178,-0.280829789958625,5.56807923521751,5.2552,1435,1574,1487,1525,-0.0125311149751763,-0.0132698773283289,-0.00307828403457537,0.0257994230370332,-0.642520973997085,-9.74933396044648,114.516238925918,-27.8423395374748,-61.4684435386404,0.0755405118928237,0.000893380004499852,0.582610687665614,-0.341953747383482,-1.23819859468461,1.19438278117328,0.0971629887673135,0.0917032506377757,0.000408779082323516,0.00490048138334336,0.638664742380533,0.0622776526785544,0.700942395059088
221.684999999806,84660,-0.011881933777364,-0.300854729918139,5.58787378665271,5.3331,1435,1573,1487,1524,0.00629962131880069,-0.0196932705435461,-0.00362194644723095,0.0495661306462563,-0.613222561860822,-9.64767060333637,114.499080687637,-27.9041098606317,-61.4087072823168,0.0753401816111132,3.16530751882998E-06,0.582368066091347,-0.344271227180394,-1.23252855858078,1.19542325184118,0.0975084036898577,0.0930626056377758,0.00020733954438719,0.00524991658563688,0.644230159957961,0.06371942153637,0.707949581494331
221.734999999806,84680,-0.011881933777364,-0.300854729918139,5.58787378665271,5.3331,1435,1573,1487,1524,0.013934600116239,-0.00441154583892353,-0.00341926533405531,0.0525849724554966,-0.628145421544843,-9.89984123550147,114.481809016189,-27.9655975928497,-61.3489320130493,0.0759437297680027,-0.000576344463142556,0.582145893332409,-0.346478326280666,-1.22692336226813,1.19471811524624,0.0975084036898577,0.0930626056377758,0.00020733954438719,0.00524991658563688,0.643133369441808,0.0634695694901273,0.706602938931935
221.787499999806,84700,-0.011881933777364,-0.300854729918139,5.58787378665271,5.2552,1435,1573,1487,1525,0.0117488215734091,0.00669476861036018,-0.00341275842223742,0.000454149227272574,-0.619188332042177,-9.80170541681975,114.464432952429,-28.0267902653209,-61.2891864879698,0.0766406947799285,-0.000513082708488053,0.582000278890524,-0.348775919685828,-1.22072528605726,1.19554162940225,0.0975084036898577,0.0917032506377757,0.00020733954438719,0.00524991658563688,0.640992316245274,0.0623488162384413,0.703341132483715
221.834999999806,84720,-0.011881933777364,-0.300854729918139,5.58787378665271,5.2552,1435,1573,1487,1525,-0.00274518605079584,0.0119207318110495,-0.00321597634026087,0.00920283317686977,-0.602691083533087,-9.66756635886301,114.446937067145,-28.087671654808,-61.2294469677868,0.0768649101631062,1.08809736066792E-05,0.581871908915708,-0.351094384546106,-1.2144542464948,1.1946231820611,0.0975084036898577,0.0917032506377757,0.00020733954438719,0.00524991658563688,0.640866718589308,0.0623488641752341,0.703215582764542
221.884999999806,84740,-0.011881933777364,-0.300854729918139,5.58787378665271,5.3331,1435,1573,1487,1524,-0.0127578909024347,0.00525023267810193,-0.00324839474011281,0.0402871428283258,-0.663116428933185,-9.90843190178232,114.429310228578,-28.1482443781268,-61.1696898050029,0.0764359244258055,0.000493562349974015,0.581729404486551,-0.353826629832652,-1.20861063372013,1.19479279410045,0.0975084036898577,0.0930626056377758,0.00020733954438719,0.00524991658563688,0.643318013496171,0.0635144445741371,0.706832458070308
221.934999999806,84760,-0.011881933777364,-0.300854729918139,5.58787378665271,5.2552,1435,1573,1487,1525,-0.0162359538515484,-0.00211302012614189,-0.0032906858847648,0.0112266396863689,-0.655654693214368,-9.80079066359922,114.41155496197,-28.2085299330869,-61.109920721119,0.0757005921448812,0.000589836731845132,0.581588916642525,-0.35651400004523,-1.20288064770612,1.19636218410187,0.0975084036898577,0.0917032506377757,0.00020733954438719,0.00524991658563688,0.641169130321849,0.0623801609202652,0.703549291242114
221.984999999806,84780,-0.000270677863374177,-0.280767452741762,5.60777679435084,5.2552,1434,1573,1487,1525,-0.00733327271208299,-0.0136179622210708,-0.00352961078692603,0.0407059962372765,-0.61033838135796,-9.70277009133153,114.393672886064,-28.268538142709,-61.0500736824029,0.0750229856356526,0.000173484471871045,0.581386370788692,-0.358722631953447,-1.19736285520727,1.197894413453,0.09785571117419,0.0917032506377757,4.72312868806819E-06,0.0048993935989091,0.643057025382157,0.0623870274953168,0.705444052877474
222.034999999806,84800,-0.000270677863374177,-0.280767452741762,5.60777679435084,5.2552,1434,1573,1487,1525,0.0045505578251096,-0.0142960473185528,-0.00352467271175776,0.0620083620295976,-0.624457494049561,-9.9188398271974,114.375678330506,-28.3282732385836,-60.990219910554,0.074961250221628,-0.000535148281689458,0.58115705413109,-0.36091902572462,-1.19200960635936,1.19549850718188,0.09785571117419,0.0917032506377757,4.72312868806819E-06,0.0048993935989091,0.643153541194792,0.0623919320785926,0.705545473273385
222.087499999806,84820,-0.000270677863374177,-0.280767452741762,5.60777679435084,5.2552,1434,1573,1487,1525,0.0166753709486695,-0.00422496786588359,-0.00297772245699992,0.0137341570030179,-0.610993347247207,-9.81644668374552,114.357585436436,-28.387728275218,-60.9304673208351,0.0755615380866711,-0.00103468653123357,0.580948849821541,-0.362842152912917,-1.18628365929635,1.19501591277787,0.09785571117419,0.0917032506377757,4.72312868806819E-06,0.0048993935989091,0.642942789063614,0.0623448092536304,0.705287598317245
222.137499999806,84840,0.011271968826821,-0.300787215591414,5.62756654504418,5.3331,1434,1572,1487,1524,0.0114286799507171,0.00559590703087762,-0.00325606762932971,0.0129312021159291,-0.605866300533526,-9.72884496460349,114.339395300063,-28.4468888253223,-60.8707867123938,0.0762581366380607,-0.000969699084019565,0.580781981886591,-0.364748930464323,-1.18009382820276,1.19227602324358,0.0982010423237887,0.0930626056377758,-0.000196696056055837,0.00524873846063551,0.647472155490743,0.0635786603253247,0.711050815816068
222.187499999806,84860,-0.0234251604389955,-0.280793150807579,5.62762268282365,5.3331,1434,1573,1486,1524,-0.0036041896763368,0.011352621705159,-0.003776240927955,0.0328938357773916,-0.662136066173763,-9.95116420880629,114.321098525753,-28.5057419576077,-60.8112625880654,0.0765116929003455,-0.000405139718711076,0.580657486468504,-0.367112331769241,-1.17395674896792,1.18805202506956,0.0982020219280406,0.0930626056377758,0.000408768849632657,0.0048998420301576,0.648935053944607,0.0638608419808392,0.712795895925446
222.237499999806,84880,-0.0234251604389955,-0.280793150807579,5.62762268282365,5.2552,1434,1573,1486,1525,-0.0206336415172187,0.00127690075605724,-0.00363696797618502,0.00703016567778259,-0.661387389100286,-9.86606946389613,114.302688358331,-28.5642888990648,-60.7518990910694,0.0758582618576263,-3.01271812227399E-05,0.580526057373872,-0.369494526393182,-1.16792526104484,1.18683947936189,0.0982020219280406,0.0917032506377757,0.000408768849632657,0.0048998420301576,0.645394701288463,0.0624539202003337,0.707848621488797
222.287499999806,84900,-0.000271048322799894,-0.28076724141223,5.60777680405583,5.2552,1434,1573,1487,1525,-0.00999172553505219,-0.0112963521589655,-0.00328728539475666,0.0364160439312987,-0.616016747842423,-9.64935289094665,114.284164419114,-28.6225500914216,-60.6926088683849,0.0750051866729413,-0.000310013621645915,0.58034328012974,-0.371466351413857,-1.1624157783592,1.18590136596235,0.0978557113435422,0.0917032506377757,4.72959320504844E-06,0.00489938991120877,0.643358272303518,0.0624558451605071,0.705814117464025
222.337499999806,84920,-0.000271048322799894,-0.28076724141223,5.60777680405583,5.2552,1434,1573,1487,1525,-0.00125965518209126,-0.0138734594557984,-0.00287807208709498,0.0605738830567571,-0.632843372443998,-9.87094121953673,114.265541107285,-28.6805415916299,-60.6332858104899,0.0747159120424155,-0.00093723666558029,0.580135993413306,-0.373297555116629,-1.157263181799,1.18614784396559,0.0978557113435422,0.0917032506377757,4.72959320504844E-06,0.00489938991120877,0.64341373838964,0.0624332254230454,0.705846963812685
222.384999999806,84940,-0.000271048322799894,-0.28076724141223,5.60777680405583,5.2552,1434,1573,1487,1525,0.0103585180356601,-0.00657644953598081,-0.00332117366179859,0.0163988764592863,-0.624471661845104,-9.79199121330654,114.246835803079,-28.7382612278238,-60.5739540197924,0.0750007122943462,-0.00148295401850143,0.579938837224069,-0.374975076777255,-1.15158545845736,1.18739028376577,0.0978557113435422,0.0917032506377757,4.72959320504844E-06,0.00489938991120877,0.643611806138919,0.0624835005332362,0.706095306672156
222.437499999806,84960,0.0112719688270119,-0.300787215598341,5.62756654505607,5.2552,1434,1572,1487,1525,0.0084987254753721,0.00145556678802159,-0.00326252810477908,0.0171127322223632,-0.596091979578123,-9.71235078022703,114.228053662747,-28.7956984941384,-60.5146219126742,0.0754607289977385,-0.00159772646758701,0.579774657586917,-0.376379657902074,-1.14570775973671,1.18584813582413,0.0982010423239963,0.0917032506377757,-0.000196696056059184,0.00524873846075639,0.645538173306936,0.0625000853869455,0.708038258693881
222.484999999806,84980,-0.0118839504752967,-0.300814523201939,5.64741411825012,5.2552,1434,1572,1486,1525,-0.00311819095969308,0.0104605595058728,-0.00282786254702628,0.0337716931572393,-0.638147297777551,-9.98205331067974,114.209190192667,-28.852841039891,-60.455393692037,0.0756679862108495,-0.00121751347668504,0.579647068676588,-0.37807182762583,-1.13999217236304,1.18195635524516,0.0985473824762324,0.0917032506377757,0.000207374735766107,0.00524921497843917,0.647460390725485,0.0624409581528348,0.70990134887832
222.537499999806,85000,-0.0118172345836892,-0.260707630038869,5.64752188981774,5.3331,1433,1573,1486,1524,-0.0186624995915261,0.00160505448391338,-0.00236620241083083,0.00566820925585211,-0.671786654476218,-9.90719439222346,114.190240565526,-28.9096881268207,-60.3963562304419,0.0751137248566606,-0.000835845380330362,0.579519920596251,-0.379906067111432,-1.13419234844884,1.17991538945603,0.0985492630900874,0.0930626056377758,0.000206210543457554,0.00454934969274361,0.649542767787176,0.0635905943291613,0.713133362116338
222.584999999806,85020,0.011337918573631,-0.260684013591048,5.62767431419341,5.2552,1433,1573,1487,1525,-0.00942078832285302,-0.0130688578163531,-0.00360313189639266,0.03733723578361,-0.618175935805008,-9.66752616113491,114.171201755427,-28.9662540830801,-60.3374772652674,0.0743165127020929,-0.00117356070108185,0.57934313806046,-0.38157425733114,-1.12843141519427,1.17614657944889,0.098202922895443,0.0917032506377757,-0.000197846879137676,0.00454893758572914,0.645616551797757,0.0625181760226958,0.708134727820453
222.649999999806,85040,0.0228830565807373,-0.280703980176995,5.6474657289358,5.2552,1433,1572,1487,1525,0.0114874686348161,-0.014976358485166,-0.0028384151722013,0.0271401112449496,-0.598219554511152,-9.70332016342348,114.147303013513,-29.0365872159854,-60.2639679458453,0.0742242224691276,-0.00211766263496878,0.579105561816958,-0.38313148165278,-1.12187626575045,1.17581061504154,0.0985482830826976,0.0917032506377757,-0.000399309537361678,0.00489828600265391,0.647719103613152,0.0625300590762916,0.710249162689444
222.699999999806,85060,0.0228830565807373,-0.280703980176995,5.6474657289358,5.2552,1433,1572,1487,1525,0.0145929103786072,0.00174796576421107,-0.00264658958445582,0.0386052622875094,-0.601029047373442,-9.8729607027752,114.128115768837,-29.0925445112399,-60.2052544157382,0.0749624708992483,-0.00241147490149116,0.578933336210556,-0.38421743937168,-1.11636700375229,1.17221186198842,0.0985482830826976,0.0917032506377757,-0.000399309537361678,0.00489828600265391,0.647094997082804,0.062394310142602,0.709489307225406
222.749999999806,85080,-0.000273919742355898,-0.280729435503056,5.66731497867763,5.3331,1433,1572,1486,1524,0.00381752995432138,0.011205281204704,-0.00285620670575425,0.00237333212179761,-0.657779726035069,-9.96722164623968,114.10886861026,-29.148207490056,-60.1467195288748,0.0755214026901265,-0.00203757974847277,0.578802053976606,-0.385661574492218,-1.11035481422965,1.16868124775338,0.0988946524906925,0.0930626056377758,4.77969947629124E-06,0.00489873019809368,0.651968911882617,0.0636515726685728,0.71562048455119
222.799999999805,85100,-0.000273919742355898,-0.280729435503056,5.66731497867763,5.2552,1433,1572,1486,1525,-0.0132671260934858,0.0104387780356521,-0.00375076953808969,-0.00145880803703219,-0.628931810944988,-9.76515149501832,114.089551784306,-29.2035731180629,-60.0884197619893,0.0752629939740255,-0.00144101790562493,0.578693545326073,-0.387146191004126,-1.10419663069834,1.16417906253302,0.0988946524906925,0.0917032506377757,4.77969947629124E-06,0.00489873019809368,0.649780443682874,0.0625729155645139,0.712353359247388
222.849999999805,85120,-0.0118172463772177,-0.260708068205841,5.64752186853417,5.2552,1433,1573,1486,1525,-0.0200245342543048,-0.00637744429008377,-0.00318358692664638,0.0526695763783797,-0.650025209129398,-9.85096769680446,114.070158194607,-29.2586549118664,-60.0302751625303,0.0743310880634784,-0.00126634869499085,0.578557846875495,-0.388564213166991,-1.09892975582292,1.16167085945861,0.0985492627186891,0.0917032506377757,0.000206210749254647,0.00454935733875727,0.647980778534155,0.062569077798213,0.710549856332368
222.899999999805,85140,0.0113379185735229,-0.260684013583021,5.62767431419396,5.2552,1433,1573,1487,1525,-0.0138405620664178,-0.0159474642714411,-0.00201952348482345,0.0340277665723881,-0.658211676306523,-9.83107395145632,114.050700304707,-29.3134723758479,-59.9721859470069,0.0734374638806069,-0.00184137258093614,0.578376236037564,-0.389688252639703,-1.09399739983768,1.1622482992034,0.0982029228954526,0.0917032506377757,-0.000197846879135785,0.00454893758558907,0.64568435604941,0.0624987607322554,0.708183116781665
222.949999999805,85160,0.0344918302242931,-0.260624426819499,5.66735936730471,5.2552,1432,1572,1487,1525,0.010206459728315,-0.0165966035027849,-0.00248528302560676,0.0281770272113673,-0.601578986949486,-9.73986454439529,114.031199675609,-29.3680443239532,-59.9140829179388,0.0733306251241543,-0.00275658623473771,0.578199629663181,-0.390363309458967,-1.08876319337936,1.1615555515326,0.098895427072235,0.0917032506377757,-0.000601882637441748,0.00454789779656561,0.64995463754719,0.0625814854342698,0.71253612298146
222.999999999805,85180,-0.000273919742432232,-0.280729435495404,5.66731497867814,5.3331,1433,1572,1486,1524,0.017721000048934,-0.00289069093613359,-0.00279287563621283,0.0437436366984529,-0.619479130070306,-9.8236193778046,114.011660605591,-29.4223476220219,-59.8561108940537,0.0741137684651864,-0.00324564130542811,0.578013288660907,-0.391023919569822,-1.08335182122504,1.15702786863634,0.0985482834396536,0.0930626056377758,-0.000399309716981289,0.00489827853128079,0.650360479987666,0.0637423219503588,0.714102801938025
223.049999999805,85200,-0.000273534819815768,-0.280729211788756,5.66731498831066,5.3331,1433,1572,1486,1524,0.00962904419462636,0.0091687881166748,-0.00270025236536144,0.00465539271212961,-0.653546055142715,-9.92013942308715,113.992090498596,-29.4763643546978,-59.7983509059268,0.0748260171442072,-0.00309107594635964,0.577874553013634,-0.391803738458071,-1.07750057194758,1.15365578488215,0.0988946526587889,0.0930626056377758,4.77298257796712E-06,0.00489872629427913,0.652344085260884,0.0637190188016711,0.716063104062555
223.099999999805,85220,-0.000273534819815768,-0.280729211788756,5.66731498831066,5.3331,1433,1572,1486,1524,-0.0112936147550457,0.013150753775515,-0.00272590764198892,-0.00622500822519723,-0.643821843619221,-9.74683552187588,113.972483090577,-29.5300896307761,-59.7407592018413,0.0747721138166995,-0.00245776803675704,0.57777319407162,-0.392546521212284,-1.0715710857635,1.15074449823551,0.0988946526587889,0.0930626056377758,4.77298257796712E-06,0.00489872629427913,0.652268485836317,0.0637665653976798,0.716035051233997
223.149999999805,85240,-0.0118172463842658,-0.260708068209931,5.64752186853403,5.3331,1433,1573,1486,1524,-0.0204336795316616,0.000137869654252293,-0.00300310737595077,0.0440921187959951,-0.67502239366528,-9.82301547954547,113.952827786197,-29.5835335143574,-59.6832804166484,0.0738962517329947,-0.00206066544480962,0.577653917888469,-0.393527294131416,-1.06624000088324,1.14847138007444,0.0985492627186867,0.0930626056377758,0.000206210749377614,0.00454935733882864,0.651740775277934,0.0640305136152681,0.715771288893202
223.199999999805,85260,0.0229445572299854,-0.240604898506253,5.64756625780254,5.2552,1432,1573,1487,1525,-0.0147160845577026,-0.0153152257030082,-0.00265935942746807,0.032559467124118,-0.660341953018892,-9.85931459426516,113.933131329497,-29.6367194882193,-59.6258275277737,0.0729021127186134,-0.00245714636181475,0.577498326783059,-0.39439746567931,-1.06126670456272,1.14944641873437,0.0985500373114222,0.0917032506377757,-0.000400382723691069,0.00419855702749945,0.648216084831105,0.0626220030300934,0.710838087861199
223.249999999805,85280,0.0229445572299854,-0.240604898506253,5.64756625780254,5.2552,1432,1573,1487,1525,0.010828713295774,-0.0197769912148606,-0.00286595626288452,0.0339249524885029,-0.601133961459063,-9.65633626195598,113.913402900461,-29.6896567102087,-59.5683791889733,0.0728015359473389,-0.0034295086543591,0.577288512090363,-0.394714076270769,-1.05614821157778,1.14915659694936,0.0985500373114222,0.0917032506377757,-0.000400382723691069,0.00419855702749945,0.648162769574048,0.0626306258532444,0.710793395427293
223.297499999805,85300,0.0228830668668675,-0.2807035520244,5.64746574937895,5.3331,1433,1572,1487,1524,0.0163868519381475,-0.000482026066856198,-0.00200483048089813,0.0398088726221893,-0.62051734151872,-9.80402266302319,113.893661011847,-29.7423363127597,-59.5109819891355,0.0735998658778107,-0.0039591779195183,0.577101875031128,-0.394727305702237,-1.05108984146001,1.14662748105705,0.0985482834394306,0.0930626056377758,-0.000399309716854634,0.00489827853139113,0.650296365645422,0.0637275574283616,0.714023923073783
223.349999999805,85320,0.0228830668668675,-0.2807035520244,5.64746574937895,5.2552,1433,1572,1487,1525,0.00943138490973282,0.0147931001137386,-0.00208276279162012,-0.00266331875472532,-0.639813068567042,-9.86873660674046,113.873917611297,-29.7947504050998,-59.4536173374752,0.0743265927573073,-0.00357688125492452,0.577027125103707,-0.39509955257286,-1.04555527876275,1.1477241236005,0.0985482834394306,0.0917032506377757,-0.000399309716854634,0.00489827853139113,0.648511998389068,0.0626657249655138,0.711177723354582
223.397499999805,85340,0.0113382895402598,-0.260684217131879,5.62767430342629,5.2552,1433,1573,1487,1525,-0.0134838571496378,0.0149359056499364,-0.00158160037594942,-0.00930015676523345,-0.631135165791741,-9.65555348856425,113.854154525199,-29.8468879225773,-59.396215465053,0.074193882813046,-0.0027534963201672,0.576993367587196,-0.395522556996423,-1.03997238956421,1.14949854050964,0.0982029227075566,0.0917032506377757,-0.000197853352505336,0.00454894113751665,0.646309828135637,0.0626732800328394,0.708983108168476
223.449999999805,85360,0.0113382895402598,-0.260684217131879,5.62767430342629,5.2552,1433,1573,1487,1525,-0.0204472924969186,-0.000655307548354014,-0.000881841716617677,0.0396823194231582,-0.650223678647113,-9.78300754345838,113.834359972838,-29.8987630234987,-59.3386865198345,0.0732470429446291,-0.00237495405380812,0.576959536467676,-0.396146600295714,-1.03505403629412,1.15112414152124,0.0982029227075566,0.0917032506377757,-0.000197853352505336,0.00454894113751665,0.646475397778719,0.0626709366747873,0.709146334453507
223.499999999805,85380,0.0229449406977907,-0.240604672577529,5.6475662666947,5.2552,1432,1573,1487,1525,-0.0158960477770962,-0.0123012278163712,-0.000470856423062936,0.0275943785243524,-0.662300846375114,-9.87444815915176,113.814537834169,-29.9503953524639,-59.2810716602127,0.072312610989735,-0.00268204920352162,0.576906877181698,-0.396753812182413,-1.03033581567404,1.15258827804066,0.0985500374665903,0.0917032506377757,-0.000400389415204268,0.00419855308504322,0.648503366966079,0.0626723384817281,0.711175705447808
223.549999999805,85400,0.0461063384050262,-0.240582993958619,5.62771103528808,5.2552,1432,1573,1488,1525,0.00931902110837032,-0.0176700956072129,-0.00011646876702983,0.0266325258617866,-0.604695439674111,-9.61197504160645,113.794698367641,-30.0017936546647,-59.2234694503103,0.0720731801051515,-0.00352947030256309,0.576827745379981,-0.396809960461629,-1.02559474742037,1.15272706834704,0.0982035636785449,0.0917032506377757,-0.000804555805195505,0.00419817479314325,0.646471905850972,0.0626779058544627,0.709149811705435
223.597499999805,85420,0.0344990288473844,-0.2606600471487,5.60782077492018,5.2552,1433,1573,1488,1525,0.0143788353319045,-0.00124046043306226,0.00123716607692873,0.0353766340605231,-0.60599502699143,-9.71589931950884,113.774863107289,-30.052964186587,-59.1657222349059,0.072738822995721,-0.00399322960973251,0.576820470056492,-0.396500890057616,-1.0211125271647,1.15677434468839,0.0978564786351251,0.0917032506377757,-0.000602008253414662,0.00454851937131017,0.644612597504831,0.0626943759136249,0.707306973418456
223.649999999805,85440,0.0113379130389252,-0.260684013594305,5.62767431535939,5.2552,1433,1573,1487,1525,0.0106759942511792,0.0113183168167651,0.00267308735696894,-0.00189544392914487,-0.633078826463283,-9.83883639917024,113.755040138785,-30.1038959353656,-59.1077546976168,0.0734479056971327,-0.00373406462960371,0.576939445514601,-0.396512985114852,-1.01618416940789,1.16123477902115,0.0982029229157892,0.0917032506377757,-0.000197846782557071,0.00454893758578598,0.646771263975019,0.0627099578527292,0.709481221827748
223.699999999805,85460,0.0113379130389252,-0.260684013594305,5.62767431535939,5.2552,1433,1573,1487,1525,-0.0116042377247927,0.0142011181390456,0.00368499293663842,-0.0122597417622876,-0.626485473687611,-9.67510458612854,113.735214652311,-30.154573717664,-59.0496833839636,0.0733984743076155,-0.00303922825560554,0.577149553778951,-0.396609512813997,-1.01092353409529,1.16235394425134,0.0982029229157892,0.0917032506377757,-0.000197846782557071,0.00454893758578598,0.646609689803865,0.0627173276570399,0.709327017460905
223.749999999805,85480,-0.00020938396092431,-0.240659504219887,5.60787639853258,5.1773,1433,1574,1487,1526,-0.0200397445446099,-0.000791883886398389,0.00437078752745644,0.0372179652398279,-0.628790148670459,-9.73070093170009,113.715374123715,-30.205003431234,-58.9915216247094,0.0725155535950974,-0.00266464284731262,0.577388496768652,-0.396942074774199,-1.00622816195056,1.16429590084102,0.0978574492671615,0.0903438956377757,3.65355009032307E-06,0.00419950989720237,0.642165138463597,0.0615061746909189,0.703671313154516
223.799999999805,85500,0.0345554811957552,-0.220560093856565,5.60791312818742,5.2552,1432,1574,1488,1525,-0.0166106588772341,-0.0164482680514571,0.00291438431155725,0.0302586441756408,-0.659572152331715,-9.77560663874985,113.695513277498,-30.2551874456963,-58.933203369144,0.0715238285057194,-0.00311915408627071,0.577517498875313,-0.397392831239464,-1.0013956836326,1.16800565241846,0.0978580901996383,0.0917032506377757,-0.000602993346893737,0.0038487751863624,0.644904763731813,0.0627517057231647,0.707656469454977
223.849999999805,85520,0.0461067157725531,-0.240583199819557,5.62771102407004,5.1773,1432,1573,1488,1526,0.014857567636382,-0.0203468397615768,0.000819593747316284,0.0288753354027292,-0.585434447920659,-9.63755479465493,113.67564562832,-30.3051371343321,-58.8747299139312,0.0714614834589572,-0.00418550072085866,0.577542343318111,-0.397330406950058,-0.99646538277858,1.17084458273969,0.09820356348279,0.0903438956377757,-0.000804562390258859,0.0041981783854166,0.644892261158523,0.0616800349198145,0.706572296078338
223.899999999804,85540,0.0461067157725531,-0.240583199819557,5.62771102407004,5.1773,1432,1573,1488,1526,0.0219327163934875,-0.000588712489679393,-4.02747374199867E-05,0.0322151796365315,-0.582902829521179,-9.76295060284889,113.655784826391,-30.3548389009823,-58.8161542364109,0.0724832146751215,-0.00469622478090498,0.577517523673698,-0.396996192940614,-0.991503481500378,1.17180029039173,0.09820356348279,0.0903438956377757,-0.000804562390258859,0.0041981783854166,0.644623683778761,0.0616332926314816,0.706256976410243
223.949999999804,85560,0.0113379130389061,-0.260684013594305,5.6276743153594,5.1773,1433,1573,1487,1526,0.0152515324155859,0.0171433535374709,-0.000426046114033447,-0.00747409843132253,-0.614992616843126,-9.83231568194917,113.635937087493,-30.4042768116521,-58.7574713001487,0.0735091575700742,-0.00428279352454347,0.577520741220108,-0.396933011249793,-0.986175007549268,1.17574349802181,0.0982029229157894,0.0903438956377757,-0.00019784678255673,0.00454893758578598,0.644467388215309,0.061572097482578,0.706039485697887
223.997499999804,85580,0.0113379130389061,-0.260684013594305,5.6276743153594,5.2552,1433,1573,1487,1525,-0.0169432433093968,0.0213184044250413,-0.00205942382616392,-0.018851908652123,-0.645574461930616,-9.68391255605032,113.616086544825,-30.4534392158603,-58.6986626475913,0.0734371812943864,-0.00321099067126449,0.577522182685387,-0.397161309378587,-0.980425616351811,1.1772721357566,0.0982029229157894,0.0917032506377757,-0.00019784678255673,0.00454893758578598,0.647632680882919,0.0629460364421165,0.710578717325036
224.049999999804,85600,0.0113951468938418,-0.220579961370251,5.62776668629129,5.1773,1432,1574,1487,1526,-0.0276397233290479,-0.00322574816400445,-0.00273781514094781,0.0408397936357783,-0.650256195840114,-9.78253756689431,113.596217767002,-30.5023418329146,-58.6397290757671,0.0721603673731534,-0.00264229313136166,0.577465620409405,-0.397604317854152,-0.975561620936847,1.17964696175749,0.0982045347885509,0.0903438956377757,-0.000198845513325353,0.00384912187447624,0.645107976932407,0.0617338166225726,0.706841793554979
224.099999999804,85620,0.0345554811957297,-0.220560093856565,5.60791312818742,5.1773,1432,1574,1488,1526,-0.0210359823492447,-0.0207096738500107,-0.00279913665305521,0.0386609226491808,-0.657946473380241,-9.76376318977705,113.576332580521,-30.5510071883832,-58.5806759574715,0.0708894878665307,-0.00324921287306356,0.57729322585332,-0.39778001254769,-0.971156224953938,1.182675458229,0.0978580901996383,0.0903438956377757,-0.000602993346893303,0.0038487751863624,0.643114037123295,0.0617246092737467,0.704838646397042
224.147499999804,85640,0.0345554811957297,-0.220560093856565,5.60791312818742,5.1773,1432,1574,1488,1526,0.0143724139396634,-0.0259641965965445,-0.00284934435657288,0.0401417264961399,-0.589139848399527,-9.58051930680217,113.556457462351,-30.5994595651034,-58.5214460895698,0.0707322076928973,-0.00454750425627219,0.57706560194618,-0.397203330344471,-0.96681695203712,1.18703757791981,0.0978580901996383,0.0903438956377757,-0.000602993346893303,0.0038487751863624,0.643134072532692,0.0617367274569784,0.70487079998967
224.197499999804,85660,0.0461067157725403,-0.240583199819557,5.62771102407004,5.1773,1432,1573,1488,1526,0.0250061690977589,-0.00414362247610267,-0.00281360242462091,0.0376454976302456,-0.580940937535745,-9.75662540061622,113.53661466142,-30.6476863024922,-58.4620377749904,0.0718188180274457,-0.00532399686284076,0.576859195424295,-0.396380089714131,-0.9621584844836,1.18845483121709,0.0982035634827902,0.0903438956377757,-0.000804562390258642,0.0041981783854166,0.644515338185856,0.0616091256063388,0.706124463792195
224.249999999804,85680,0.0229445516908014,-0.240604898516189,5.64756625897182,5.2552,1432,1573,1487,1525,0.0216244740683947,0.0155766133120764,-0.00272905051945685,-0.00527166709856856,-0.62627403804197,-9.87617495768705,113.516807196303,-30.6956582851181,-58.4025520182806,0.0731113011306108,-0.00501336391191238,0.576718215703231,-0.395924028328577,-0.956867153993378,1.19031536422392,0.0985500373318261,0.0917032506377757,-0.000400382627032289,0.00419855702767284,0.64932845556066,0.0628395087274816,0.712167964288141
224.299999999804,85700,0.0229445516908014,-0.240604898516189,5.64756625897182,5.2552,1432,1573,1487,1525,-0.00907917189560697,0.0223701441678682,-0.00320434923649911,-0.0201471101292145,-0.635279822598026,-9.7215222888038,113.497016446905,-30.7433561343203,-58.3430686774452,0.0734108741011168,-0.00395357624211829,0.57663165822825,-0.395782504249184,-0.951142956821569,1.18977785441614,0.0985500373318261,0.0917032506377757,-0.000400382627032289,0.00419855702767284,0.649189349939282,0.0628572009123375,0.712046550851619
224.349999999804,85720,0.0229445516908014,-0.240604898516189,5.64756625897182,5.2552,1432,1573,1487,1525,-0.0227202608972022,0.00754670377598676,-0.00381693035646626,0.0271410663815038,-0.663157585567753,-9.81111119774853,113.477218830008,-30.7907847294361,-58.2835799022085,0.072519976854529,-0.00315495651577421,0.576512662616632,-0.396038147896481,-0.946058178640726,1.18947139237165,0.0985500373318261,0.0917032506377757,-0.000400382627032289,0.00419855702767284,0.649599335463803,0.0629179015332803,0.712517236997083
224.399999999804,85740,0.0113951367877247,-0.22058039335196,5.62776666817045,5.2552,1432,1574,1487,1525,-0.0288478928809245,-0.0107373143446049,-0.0038131711014916,0.0269892512694873,-0.69533644858757,-9.79807206170132,113.457413389677,-30.8379735507646,-58.224044684053,0.0712152351105249,-0.00315887863037705,0.576335490771594,-0.396201715256977,-0.941573577024677,1.19240762000812,0.0982045344723423,0.0917032506377757,-0.000198845336973614,0.00384912941255706,0.648896551272635,0.0631737816311227,0.712070332903758
224.447499999804,85760,0.0345492019707521,-0.220530168549133,5.6674525561062,5.2552,1431,1573,1487,1525,-0.000786726487506981,-0.0247018460907177,-0.00402348425637305,0.0382768468560386,-0.634317886026983,-9.72233489775404,113.437615655224,-30.8849472177304,-58.1644360973872,0.0703986461209093,-0.00414858737580667,0.57609493295025,-0.395781878266245,-0.937172218856681,1.19163144263247,0.098897053216821,0.0917032506377757,-0.000602883774417433,0.00384825298974771,0.652796974608913,0.0631730924498381,0.715970067058751
224.499999999804,85780,0.0345492019707521,-0.220530168549133,5.6674525561062,5.1773,1431,1573,1487,1526,0.014527358074732,-0.017206269323119,-0.00410729987445253,0.0545434958875972,-0.600428804552868,-9.80772388434904,113.417847282212,-30.9317038430378,-58.1049036298254,0.0707784036413953,-0.0052084354089821,0.575843070359963,-0.394916520506068,-0.932810013285116,1.18942882473672,0.098897053216821,0.0903438956377757,-0.000602883774417433,0.00384825298974771,0.649403149456464,0.0617929318817303,0.711196081338194
224.549999999804,85800,0.0345492019707521,-0.220530168549133,5.6674525561062,5.1773,1431,1573,1487,1526,0.0241422271759117,0.00100098059667903,-0.00354156135048298,0.012283603442805,-0.605660787621414,-9.86422001217479,113.398127936817,-30.9782261927474,-58.0454398438891,0.0718540965140476,-0.00563815479512162,0.575637714400616,-0.393972415692359,-0.927974789279564,1.18898465354031,0.098897053216821,0.0903438956377757,-0.000602883774417433,0.00384825298974771,0.649197360850314,0.0617467077174094,0.710944068567723
224.599999999804,85820,0.0344918290262418,-0.260624433570487,5.66735936606156,5.2552,1432,1572,1487,1525,0.00919238831237115,0.0172035836567078,-0.00337847010557608,-0.0175736542482586,-0.617089560827652,-9.71737475528653,113.378450221452,-31.0244889097883,-57.9860685904313,0.0727690592339492,-0.00514452264780075,0.575479417122306,-0.393159669637094,-0.922606842004244,1.18671821832173,0.0988954270505422,0.0917032506377757,-0.000601882616535751,0.00454789791437034,0.651359865978277,0.0628879852871598,0.714247851265437
224.647499999804,85840,0.0345492109828538,-0.220529737646612,5.66745257314656,5.2552,1431,1573,1487,1525,-0.0106881110961019,0.0183774994145006,-0.00315229945950878,0.0100610431167268,-0.646693003048124,-9.82950375020734,113.358801732679,-31.0704939349833,-57.9266858025931,0.0727009474623128,-0.00413226683781009,0.575386510339689,-0.39276874424053,-0.917584110751248,1.18795408000128,0.0988970535141754,0.0917032506377757,-0.000602883931678601,0.00384824547049873,0.651489256528976,0.0629081104283956,0.714397366957372
224.699999999804,85860,0.0345492109828538,-0.220529737646612,5.66745257314656,5.2552,1431,1573,1487,1525,-0.0252650076168679,0.00207993294088632,-0.00357278115393057,0.010835997870772,-0.68506627571258,-9.87562118047406,113.339161763847,-31.1162475050898,-57.8672807118733,0.0717338842641981,-0.00356156117659524,0.575263304624157,-0.392868513542251,-0.912713727615864,1.18811627516127,0.0988970535141754,0.0917032506377757,-0.000602883931678601,0.00384824547049873,0.65186618867093,0.0629601430005234,0.714826331671453
224.749999999804,85880,0.0345492109828538,-0.220529737646612,5.66745257314656,5.2552,1431,1573,1487,1525,-0.0125265443137448,-0.0112224568831729,-0.00388191874849187,0.0206597052702066,-0.650586719110481,-9.70393521709358,113.319528059899,-31.1617734216938,-57.8078979424151,0.0707491707739479,-0.00384632475980322,0.575074590672068,-0.392543255628566,-0.908233837208743,1.18779130684748,0.0988970535141754,0.0917032506377757,-0.000602883931678601,0.00384824547049873,0.652954310896008,0.0632167827696762,0.716171093665684
224.797499999804,85900,0.0345492109828538,-0.220529737646612,5.66745257314656,5.1773,1431,1573,1487,1526,-0.00118208700002812,-0.0165975866454545,-0.00342228629242037,0.0527487201987208,-0.620049373293622,-9.78925360997243,113.299918620203,-31.2070902605291,-57.7485163395932,0.0703682939436243,-0.00455615751370936,0.574866763101167,-0.391787154383936,-0.904225849640543,1.18715008330108,0.0988970535141754,0.0903438956377757,-0.000602883931678601,0.00384824547049873,0.649536810112374,0.0618203113515412,0.711357121463915
224.849999999804,85920,0.0577022075855232,-0.220479211652553,5.70712961024895,5.1773,1430,1572,1487,1526,0.0149460822320944,-0.00607614002598333,-0.003045687502574,0.0205028041003867,-0.610517880268647,-9.94633059634392,113.280351450834,-31.2521934795972,-57.689158582018,0.0707606399312007,-0.0051768143438595,0.574661667978824,-0.390923083153539,-0.899916232569601,1.18582004828199,0.099589417811612,0.0903438956377757,-0.0010069037223952,0.0038473637919024,0.65215584729303,0.0615123243042527,0.713668171597283
224.899999999804,85940,0.0229391212023938,-0.240571672139201,5.70709993607759,5.2552,1431,1572,1486,1525,0.0118732441228727,0.00585070623700443,-0.00310595035662681,-0.00166420825404309,-0.612652989544242,-9.78406101118352,113.260828797257,-31.2970667315961,-57.6299983773512,0.0715568657265265,-0.00518694531666846,0.574489834940663,-0.389959254208173,-0.895035701750076,1.18150534134744,0.0995888999973219,0.0917032506377757,-0.00040028786500958,0.00419797722739441,0.655506981403683,0.0629151642852707,0.718422145688953
224.949999999804,85960,0.0229391212023938,-0.240571672139201,5.70709993607759,5.2552,1431,1572,1486,1525,-0.00493355597009319,0.0155129399078899,-0.00331543013753497,0.0163885414820805,-0.641272495453712,-9.88230687372936,113.241347958332,-31.3416990203686,-57.5710245041421,0.0717641133345033,-0.00456139060711829,0.574367182460206,-0.389202064400145,-0.890264009814616,1.17722408449041,0.0995888999973219,0.0917032506377757,-0.00040028786500958,0.00419797722739441,0.655645578668048,0.0629228660336634,0.718568444701712
224.999999999803,85980,0.0229923614392747,-0.20047734557066,5.70718577184531,5.1773,1430,1573,1486,1526,-0.024368017027809,0.00263641476110892,-0.00310241220925443,0.00917881859582141,-0.663649186616719,-9.93499000538271,113.221901824746,-31.3860976339294,-57.5121831529522,0.0710010401020597,-0.00401563377359022,0.574260753069195,-0.388735487417271,-0.885742038558411,1.1765785962451,0.0995903978314685,0.0903438956377757,-0.000401216907143175,0.00349833122877337,0.653383209065923,0.0617931728606232,0.715176381926546
225.049999999803,86000,0.0461506862281602,-0.200459265706918,5.68733316906881,5.2552,1430,1573,1487,1525,-0.0125804745112276,-0.012863035538594,-0.00298021517326555,0.0216840098968949,-0.641615721498425,-9.71224992489087,113.202482078609,-31.4302747570463,-57.4534499126607,0.0700078105263755,-0.00433833231533743,0.574071352847831,-0.387978028329395,-0.881472944812841,1.17357466471373,0.0992439699130187,0.0917032506377757,-0.000805329674709205,0.00349801573515107,0.653483898377207,0.0629125027709674,0.716396401148175
225.099999999803,86020,0.0461506862281602,-0.200459265706918,5.68733316906881,5.2552,1430,1573,1487,1525,0.00360774619866536,-0.0190906567997703,-0.00332968150788313,0.0518322769345953,-0.628576764408769,-9.78891397368804,113.183105028988,-31.474250649755,-57.3947816087197,0.06974892407734,-0.00517245026636255,0.573849435275627,-0.386941281280101,-0.877528376975724,1.17280763066411,0.0992439699130187,0.0917032506377757,-0.000805329674709205,0.00349801573515107,0.65364315649394,0.0629226995525484,0.716565856046488
225.149999999803,86040,0.0577022075783987,-0.220479211656503,5.70712961024897,5.2552,1430,1572,1487,1525,0.0223504840561789,-0.00338343988046891,-0.00333680238150272,0.0170242264215006,-0.626858000303013,-9.89822226829714,113.163789244992,-31.5180211897475,-57.3361512641335,0.0704596313681191,-0.00582225479007521,0.573643105016997,-0.385730480006783,-0.873270979930959,1.17154013613577,0.0995894178116124,0.0917032506377757,-0.00100690372227087,0.00384736379197134,0.655860499336359,0.0629444910313542,0.718804990367713
225.197499999803,86060,0.0345420495502429,-0.220499126179156,5.72698389475917,5.1773,1430,1572,1486,1526,0.014662780922643,0.0114269028477128,-0.0034396287825692,-0.00847380197446484,-0.594682413770542,-9.81844304314817,113.144537884765,-31.5615696783321,-57.2776594086809,0.0714473928256081,-0.00557865245140644,0.573508489699273,-0.384511222609804,-0.868462053349826,1.16848787550665,0.0999358750763153,0.0903438956377757,-0.000602758964679532,0.00384771130039163,0.655401195135059,0.0618195636342911,0.717220758769351
225.247499999803,86080,0.0345420495502429,-0.220499126179156,5.72698389475917,5.2552,1430,1572,1486,1525,-0.00417925153966575,0.018602924631849,-0.00317343084752249,0.00924914734818278,-0.639909177987325,-9.89977207224983,113.125333314105,-31.6048744726525,-57.2193632860191,0.0717267664480068,-0.00473962469694411,0.573402491544298,-0.38365297456275,-0.863710956197799,1.16320279587619,0.0999358750763153,0.0917032506377757,-0.000602758964679532,0.00384771130039163,0.657749629153236,0.0629500949533521,0.720699724106588
225.297499999803,86100,0.0229923614392747,-0.20047734557066,5.70718577184531,5.2552,1430,1573,1486,1525,-0.0250630947886297,0.00479005702669595,-0.00356031986686596,0.00658062674197238,-0.690723791999363,-9.89569796756968,113.106164368584,-31.6479455858056,-57.1612087694692,0.0709650667580187,-0.00404880690292962,0.573301207202618,-0.383222364290984,-0.859158469137467,1.16268793245909,0.0995903978314685,0.0917032506377757,-0.000401216907143175,0.00349833122877337,0.657348738980445,0.0632703720540288,0.720619111034474
225.349999999803,86120,0.0461506862281666,-0.200459265706918,5.68733316906881,5.2552,1430,1573,1487,1525,-0.0180682537994368,-0.010896430512116,-0.00258420677896388,0.0205211502571866,-0.646963505754494,-9.74544059615393,113.08702580574,-31.690803688339,-57.1031272164946,0.0698355750646326,-0.0042417777676942,0.573137202443341,-0.382319042223268,-0.855175641434219,1.16106499037705,0.0995903978314685,0.0917032506377757,-0.000401216907143175,0.00349833122877337,0.655595682230385,0.0629384747956072,0.718534157025992
225.397499999803,86140,0.0461506862201134,-0.200459265701944,5.6873331690817,5.2552,1430,1573,1487,1525,-0.0019724483822538,-0.0203386828236917,-0.00261472372058253,0.0520572110469004,-0.635154218713972,-9.76407126254356,113.067932629163,-31.7334692224168,-57.0450650907533,0.0692716421708285,-0.00504622516655974,0.572926661555333,-0.381164786886072,-0.85155224698578,1.16125993096363,0.0992439699132435,0.0917032506377757,-0.000805329674568787,0.00349801573506426,0.653721406405287,0.0629388533341206,0.716660259739407
225.449999999803,86160,0.0577022075784178,-0.220479211656503,5.70712961024898,5.2552,1430,1572,1487,1525,0.0176719014914571,-0.0068333456543601,-0.00297855208938631,0.0207431266952186,-0.633259205021248,-9.87273742327685,113.04890705077,-31.7759466779382,-56.9869674492949,0.0697426698979933,-0.00581363214158129,0.5727271951281,-0.37981919690319,-0.84760824176626,1.16199800466004,0.0995894178116126,0.0917032506377757,-0.00100690372227121,0.00384736379197134,0.655952440260237,0.062959079369507,0.718911519629744
225.499999999803,86180,0.0345420495502301,-0.220499126179156,5.72698389475916,5.2552,1430,1572,1486,1525,0.0122897894925987,0.00836422593513603,-0.00331524018801098,-0.00561859330102821,-0.615267087023881,-9.80702079733886,113.0299558361,-31.8182179931039,-56.9289532013145,0.0706031353396449,-0.00576178500460112,0.572579390695003,-0.378332446456487,-0.843092167697418,1.15845888506571,0.0999358750763152,0.0917032506377757,-0.000602758964679315,0.00384771130039163,0.657840464458132,0.0629809551827077,0.72082141964084
225.549999999803,86200,0.0345420495502301,-0.220499126179156,5.72698389475916,5.2552,1430,1572,1486,1525,-0.00353568473646246,0.0162571052800607,-0.00289171503117768,0.0114224149799799,-0.63940390558057,-9.87851973342448,113.011069569873,-31.8602647436102,-56.8711336995855,0.0708476589780042,-0.00507061412378573,0.572472923290122,-0.377089885968763,-0.838748997412498,1.1541697145158,0.0999358750763152,0.0917032506377757,-0.000602758964679315,0.00384771130039163,0.657860133807067,0.062971213802474,0.720831347609541
225.599999999803,86220,0.0229923521397399,-0.200477772075747,5.70718575522779,5.2552,1430,1573,1486,1525,-0.0218787478105179,0.00470043527056854,-0.00323711145503386,0.00638060609310787,-0.68256760987096,-9.86964183220797,112.992236789347,-31.9020935304031,-56.8134512589469,0.0701973188169233,-0.00446231131570395,0.572372033112012,-0.376285319133207,-0.834490347357307,1.15350140085305,0.0995903975414928,0.0917032506377757,-0.000401216744866283,0.00349833867128712,0.656618038265435,0.0631167640363871,0.719734802301822
225.647499999803,86240,0.0345907090549975,-0.18040911758593,5.72706227845244,5.1773,1429,1573,1486,1526,-0.0175645545710401,-0.00845863564648055,-0.00248130422820556,0.0172411654939245,-0.623714265437517,-9.79195407737847,112.97345463776,-31.9437251762751,-56.7558053546955,0.0691669844398646,-0.00458541325499338,0.572229615966184,-0.375037463911411,-0.830739251876114,1.15266349770017,0.099937242871763,0.0903438956377757,-0.000603608073037528,0.00314814065043983,0.654250925481075,0.0615723039146355,0.71582322939571
225.697499999803,86260,0.0345907090549975,-0.18040911758593,5.72706227845244,5.2552,1429,1573,1486,1525,-0.00326893200403959,-0.0229371957141521,-0.00311049587790508,0.0551975161442386,-0.637880192094989,-9.83768852038709,112.95473042497,-31.9851676165716,-56.6982583357457,0.06856349176132,-0.00541491445478823,0.572010437064247,-0.373684800028342,-0.82706877173226,1.14901864967326,0.099937242871763,0.0917032506377757,-0.000603608073037528,0.00314814065043983,0.657879281662558,0.0629589449018815,0.72083822656444
225.749999999803,86280,0.0693037506015989,-0.200412817694917,5.72700611664606,5.1773,1429,1572,1487,1526,0.0236374678815144,-0.00999858689363141,-0.00367123606590468,0.0237886191596372,-0.60928829051478,-9.88372713771196,112.93608960379,-32.0264283946655,-56.6408320339649,0.0690815880026042,-0.0063631018648905,0.57179831921454,-0.372036364935969,-0.823258770948838,1.147654953737,0.0999362628482417,0.0903438956377757,-0.00120935064802571,0.00349720521734163,0.655988291984228,0.0618992434749388,0.717887535459167
225.799999999803,86300,0.0345420495501792,-0.22049912617193,5.72698389475955,5.2552,1430,1572,1486,1525,0.0197318426148958,0.00864679380446608,-0.00282880419093406,-0.00689816027526465,-0.606945829763006,-9.76402782751587,112.917538559765,-32.0674901003319,-56.5835226590065,0.070315263507937,-0.00639577315168475,0.571637783524525,-0.370084072431869,-0.819060368676717,1.14533437553229,0.0999358750763221,0.0917032506377757,-0.000602758964678447,0.00384771130026552,0.657838770940342,0.0629853050349533,0.720824075975296
225.847499999803,86320,0.0345420495501792,-0.22049912617193,5.72698389475955,5.1773,1430,1572,1486,1526,-0.00130063694082756,0.023737689596047,-0.00304867405836179,0.00215947088480269,-0.621330180557928,-9.85551524059144,112.899073138992,-32.1083364666289,-56.5263186800246,0.0708375472391834,-0.00548099283473738,0.571572086892358,-0.368602633354275,-0.814646131146256,1.14261337049999,0.0999358750763221,0.0903438956377757,-0.000602758964678447,0.00384771130026552,0.655694413257667,0.0618686721104503,0.717563085368117
225.899999999803,86340,0.0229923521397399,-0.200477772075747,5.70718575522779,5.1773,1430,1573,1486,1526,-0.0280451114238074,0.0117445132262621,-0.00270648713954446,-0.00230410255591819,-0.662724487109677,-9.84435762095591,112.880669211815,-32.1489623441595,-56.4692154523007,0.0700863374118588,-0.00445766506009235,0.571499393843477,-0.367606077825238,-0.810559042870326,1.14191898202624,0.0995903975414928,0.0903438956377757,-0.000401216744866283,0.00349833867128712,0.652489739440395,0.061600959913938,0.714090699354333
225.949999999803,86360,0.0345907090549975,-0.18040911758593,5.72706227845244,5.2552,1429,1573,1486,1525,-0.0221612486892309,-0.00841060372439772,-0.00308048953998048,0.0164777511148305,-0.653597313140712,-9.76230146970852,112.862313260702,-32.1893914149798,-56.4121721658409,0.0687665483986427,-0.00440829662136567,0.571337084741477,-0.366545740881924,-0.806787934903668,1.14009151586084,0.099937242871763,0.0917032506377757,-0.000603608073037528,0.00314814065043983,0.657801638666678,0.062981056280791,0.720782694947469
